experiment,participant,trial_number,f0,ff,morph,response,rt,speaker,context_speaker,time_elapsed,wordpair,response_o
blocked,31,1,1.0,1.146,0.0,o,1600,high_ff,high_ff,237.176,tut_tot,true
blocked,31,2,1.0,1.146,0.0,u,1835,high_ff,high_ff,239.512,ruhm_rom,false
blocked,31,3,1.0,1.146,1.0,o,1136,high_ff,high_ff,241.155,zug_zog,true
blocked,31,4,1.0,1.146,0.75,o,875,high_ff,high_ff,242.536,bug_bog,true
blocked,31,5,1.0,1.0,0.25,u,880,center,high_ff,243.917,kur_chor,false
blocked,31,6,1.0,1.146,0.25,o,1013,high_ff,high_ff,245.434,tut_tot,true
blocked,31,7,1.0,1.146,1.0,o,1259,high_ff,high_ff,247.197,fuhr_vor,true
blocked,31,8,1.0,1.0,0.5,o,891,center,high_ff,248.588,zug_zog,true
blocked,31,9,1.0,1.146,0.5,o,821,high_ff,high_ff,249.911,tut_tot,true
blocked,31,10,1.0,1.146,0.0,o,720,high_ff,high_ff,251.134,bug_bog,true
blocked,31,11,1.0,1.146,0.25,u,976,high_ff,high_ff,252.618,fuhr_vor,false
blocked,31,12,1.0,1.146,0.5,o,1323,high_ff,high_ff,254.444,kur_chor,true
blocked,31,13,1.0,1.0,0.75,o,976,center,high_ff,255.948,schuh_show,true
blocked,31,14,1.0,1.146,0.0,o,944,high_ff,high_ff,257.395,tut_tot,true
blocked,31,15,1.0,1.146,0.0,u,1008,high_ff,high_ff,258.908,ruhm_rom,false
blocked,31,16,1.0,1.146,0.25,o,731,high_ff,high_ff,260.141,kur_chor,true
blocked,31,17,1.0,1.146,0.5,o,976,high_ff,high_ff,261.618,schuh_show,true
blocked,31,18,1.0,1.146,0.75,o,1568,high_ff,high_ff,263.691,fuhr_vor,true
blocked,31,19,1.0,1.0,0.25,u,917,center,high_ff,265.113,brut_brot,false
blocked,31,20,1.0,1.146,0.75,o,800,high_ff,high_ff,266.414,kur_chor,true
blocked,31,21,1.0,1.146,0.75,o,939,high_ff,high_ff,267.853,ruhm_rom,true
blocked,31,22,1.0,1.0,0.5,u,1120,center,high_ff,269.477,fuhr_vor,false
blocked,31,23,1.0,1.146,0.0,u,859,high_ff,high_ff,270.841,brut_brot,false
blocked,31,24,1.0,1.146,0.5,o,1104,high_ff,high_ff,272.452,bug_bog,true
blocked,31,25,1.0,1.146,0.25,o,1067,high_ff,high_ff,274.025,zug_zog,true
blocked,31,26,1.0,1.0,0.5,o,747,center,high_ff,275.281,schuh_show,true
blocked,31,27,1.0,1.146,0.75,o,1232,high_ff,high_ff,277.017,fuhr_vor,true
blocked,31,28,1.0,1.146,1.0,o,800,high_ff,high_ff,278.317,zug_zog,true
blocked,31,29,1.0,1.146,0.0,u,859,high_ff,high_ff,279.68,ruhm_rom,false
blocked,31,30,1.0,1.0,0.75,o,939,center,high_ff,281.126,tut_tot,true
blocked,31,31,1.0,1.146,0.5,o,768,high_ff,high_ff,282.398,kur_chor,true
blocked,31,32,1.0,1.146,0.0,u,811,high_ff,high_ff,283.711,brut_brot,false
blocked,31,33,1.0,1.0,0.25,u,891,center,high_ff,285.109,huhn_hohn,false
blocked,31,34,1.0,1.146,1.0,o,987,high_ff,high_ff,286.604,ruhm_rom,true
blocked,31,35,1.0,1.146,0.0,u,853,high_ff,high_ff,287.963,bug_bog,false
blocked,31,36,1.0,1.146,0.5,o,907,high_ff,high_ff,289.374,huhn_hohn,true
blocked,31,37,1.0,1.146,0.0,u,891,high_ff,high_ff,290.769,ruhm_rom,false
blocked,31,38,1.0,1.146,0.75,o,992,high_ff,high_ff,292.268,tut_tot,true
blocked,31,39,1.0,1.146,0.5,u,896,high_ff,high_ff,293.669,ruhm_rom,false
blocked,31,40,1.0,1.146,0.5,o,1077,high_ff,high_ff,295.246,huhn_hohn,true
blocked,31,41,1.0,1.146,0.5,o,928,high_ff,high_ff,296.679,zug_zog,true
blocked,31,42,1.0,1.146,0.25,u,864,high_ff,high_ff,298.043,ruhm_rom,false
blocked,31,43,1.0,1.146,1.0,o,843,high_ff,high_ff,299.385,zug_zog,true
blocked,31,44,1.0,1.146,1.0,o,699,high_ff,high_ff,300.585,bug_bog,true
blocked,31,45,1.0,1.146,0.75,o,715,high_ff,high_ff,301.802,tut_tot,true
blocked,31,46,1.0,1.146,0.25,u,1152,high_ff,high_ff,303.464,kur_chor,false
blocked,31,47,1.0,1.0,0.25,u,848,center,high_ff,304.816,ruhm_rom,false
blocked,31,48,1.0,1.146,1.0,o,699,high_ff,high_ff,306.024,bug_bog,true
blocked,31,49,1.0,1.0,0.25,u,843,center,high_ff,307.369,tut_tot,false
blocked,31,50,1.0,1.146,0.75,o,976,high_ff,high_ff,308.85,brut_brot,true
blocked,31,51,1.0,1.146,0.0,o,1019,high_ff,high_ff,310.373,schuh_show,true
blocked,31,52,1.0,1.146,0.0,u,1019,high_ff,high_ff,311.893,fuhr_vor,false
blocked,31,53,1.0,1.146,0.75,o,907,high_ff,high_ff,313.3,brut_brot,true
blocked,31,54,1.0,1.146,0.0,u,843,high_ff,high_ff,314.644,huhn_hohn,false
blocked,31,55,1.0,1.146,1.0,o,789,high_ff,high_ff,315.936,schuh_show,true
blocked,31,56,1.0,1.146,0.0,u,1189,high_ff,high_ff,317.626,kur_chor,false
blocked,31,57,1.0,1.0,0.25,u,779,center,high_ff,318.913,bug_bog,false
blocked,31,58,1.0,1.146,1.0,o,816,high_ff,high_ff,320.236,kur_chor,true
blocked,31,59,1.0,1.146,0.5,o,949,high_ff,high_ff,321.69,zug_zog,true
blocked,31,60,1.0,1.146,1.0,o,677,high_ff,high_ff,322.875,kur_chor,true
blocked,31,61,1.0,1.146,0.75,o,965,high_ff,high_ff,324.348,zug_zog,true
blocked,31,62,1.0,1.146,0.75,o,1109,high_ff,high_ff,325.964,ruhm_rom,true
blocked,31,63,1.0,1.146,0.75,o,1003,high_ff,high_ff,327.471,fuhr_vor,true
blocked,31,64,1.0,1.146,0.75,o,827,high_ff,high_ff,328.802,huhn_hohn,true
blocked,31,65,1.0,1.146,1.0,o,811,high_ff,high_ff,330.121,kur_chor,true
blocked,31,66,1.0,1.146,0.5,u,896,high_ff,high_ff,331.52,brut_brot,false
blocked,31,67,1.0,1.146,0.0,u,880,high_ff,high_ff,332.901,fuhr_vor,false
blocked,31,68,1.0,1.146,0.75,o,725,high_ff,high_ff,334.133,tut_tot,true
blocked,31,69,1.0,1.146,1.0,o,784,high_ff,high_ff,335.422,schuh_show,true
blocked,31,70,1.0,1.146,1.0,o,853,high_ff,high_ff,336.781,ruhm_rom,true
blocked,31,71,1.0,1.0,0.75,o,1973,center,high_ff,339.262,zug_zog,true
blocked,31,72,1.0,1.146,0.25,o,869,high_ff,high_ff,340.633,huhn_hohn,true
blocked,31,73,1.0,1.146,1.0,o,1019,high_ff,high_ff,342.155,fuhr_vor,true
blocked,31,74,1.0,1.146,0.75,u,1056,high_ff,high_ff,343.712,brut_brot,false
blocked,31,75,1.0,1.146,0.5,o,1083,high_ff,high_ff,345.295,bug_bog,true
blocked,31,76,1.0,1.146,0.0,o,1131,high_ff,high_ff,346.931,zug_zog,true
blocked,31,77,1.0,1.146,0.25,u,1872,high_ff,high_ff,349.307,fuhr_vor,false
blocked,31,78,1.0,1.146,0.0,o,1029,high_ff,high_ff,350.847,zug_zog,true
blocked,31,79,1.0,1.146,0.25,o,784,high_ff,high_ff,352.136,tut_tot,true
blocked,31,80,1.0,1.146,0.25,u,1248,high_ff,high_ff,353.89,ruhm_rom,false
blocked,31,81,1.0,1.146,1.0,o,773,high_ff,high_ff,355.171,tut_tot,true
blocked,31,82,1.0,1.146,0.75,o,901,high_ff,high_ff,356.578,kur_chor,true
blocked,31,83,1.0,1.146,0.75,u,1936,high_ff,high_ff,359.018,brut_brot,false
blocked,31,84,1.0,1.146,0.25,u,789,high_ff,high_ff,360.313,zug_zog,false
blocked,31,85,1.0,1.146,0.0,u,2043,high_ff,high_ff,362.861,huhn_hohn,false
blocked,31,86,1.0,1.146,0.0,o,1051,high_ff,high_ff,364.414,tut_tot,true
blocked,31,87,1.0,1.146,0.25,o,1072,high_ff,high_ff,365.992,schuh_show,true
blocked,31,88,1.0,1.146,0.0,o,2053,high_ff,high_ff,368.55,zug_zog,true
blocked,31,89,1.0,1.146,1.0,o,1120,high_ff,high_ff,370.179,brut_brot,true
blocked,31,90,1.0,1.146,0.25,o,1120,high_ff,high_ff,371.805,schuh_show,true
blocked,31,91,1.0,1.146,0.5,u,1317,high_ff,high_ff,373.627,brut_brot,false
blocked,31,92,1.0,1.146,0.75,o,843,high_ff,high_ff,374.972,schuh_show,true
blocked,31,93,1.0,1.146,1.0,o,1237,high_ff,high_ff,376.718,bug_bog,true
blocked,31,94,1.0,1.0,0.5,u,992,center,high_ff,378.215,ruhm_rom,false
blocked,31,95,1.0,1.146,0.25,o,1024,high_ff,high_ff,379.748,schuh_show,true
blocked,31,96,1.0,1.146,0.75,o,1323,high_ff,high_ff,381.571,zug_zog,true
blocked,31,97,1.0,1.146,0.5,o,795,high_ff,high_ff,382.869,tut_tot,true
blocked,31,98,1.0,1.146,0.0,o,965,high_ff,high_ff,384.337,schuh_show,true
blocked,31,99,1.0,1.146,0.25,o,1056,high_ff,high_ff,385.899,zug_zog,true
blocked,31,100,1.0,1.0,0.5,u,1029,center,high_ff,387.43,huhn_hohn,false
blocked,31,101,1.0,1.146,0.25,o,709,high_ff,high_ff,388.641,bug_bog,true
blocked,31,102,1.0,1.146,0.5,o,811,high_ff,high_ff,389.957,schuh_show,true
blocked,31,103,1.0,1.0,0.75,u,779,center,high_ff,391.238,ruhm_rom,false
blocked,31,104,1.0,1.146,0.5,o,747,high_ff,high_ff,392.49,bug_bog,true
blocked,31,105,1.0,1.146,1.0,o,869,high_ff,high_ff,408.87,brut_brot,true
blocked,31,106,1.0,1.146,0.5,o,651,high_ff,high_ff,410.024,fuhr_vor,true
blocked,31,107,1.0,1.146,0.75,o,741,high_ff,high_ff,411.272,kur_chor,true
blocked,31,108,1.0,1.146,0.0,u,773,high_ff,high_ff,412.553,huhn_hohn,false
blocked,31,109,1.0,1.146,0.5,o,779,high_ff,high_ff,413.838,schuh_show,true
blocked,31,110,1.0,1.146,1.0,o,715,high_ff,high_ff,415.061,tut_tot,true
blocked,31,111,1.0,1.146,0.25,u,1024,high_ff,high_ff,416.59,kur_chor,false
blocked,31,112,1.0,1.146,0.25,u,827,high_ff,high_ff,417.923,fuhr_vor,false
blocked,31,113,1.0,1.146,1.0,o,539,high_ff,high_ff,418.97,brut_brot,true
blocked,31,114,1.0,1.146,0.5,u,832,high_ff,high_ff,420.307,ruhm_rom,false
blocked,31,115,1.0,1.0,0.5,u,1557,center,high_ff,422.371,tut_tot,false
blocked,31,116,1.0,1.146,1.0,o,1317,high_ff,high_ff,424.193,huhn_hohn,true
blocked,31,117,1.0,1.146,1.0,o,848,high_ff,high_ff,425.547,tut_tot,true
blocked,31,118,1.0,1.146,1.0,o,1509,high_ff,high_ff,427.561,fuhr_vor,true
blocked,31,119,1.0,1.146,1.0,o,784,high_ff,high_ff,428.851,huhn_hohn,true
blocked,31,120,1.0,1.146,0.5,o,747,high_ff,high_ff,430.103,brut_brot,true
blocked,31,121,1.0,1.146,0.75,o,800,high_ff,high_ff,431.404,bug_bog,true
blocked,31,122,1.0,1.146,0.0,u,832,high_ff,high_ff,432.74,huhn_hohn,false
blocked,31,123,1.0,1.146,1.0,o,928,high_ff,high_ff,434.176,ruhm_rom,true
blocked,31,124,1.0,1.146,0.0,o,816,high_ff,high_ff,435.499,schuh_show,true
blocked,31,125,1.0,1.146,1.0,o,720,high_ff,high_ff,436.721,huhn_hohn,true
blocked,31,126,1.0,1.146,0.5,o,1003,high_ff,high_ff,438.23,zug_zog,true
blocked,31,127,1.0,1.146,1.0,o,704,high_ff,high_ff,439.437,ruhm_rom,true
blocked,31,128,1.0,1.146,1.0,o,816,high_ff,high_ff,440.755,kur_chor,true
blocked,31,129,1.0,1.146,1.0,o,944,high_ff,high_ff,442.203,zug_zog,true
blocked,31,130,1.0,1.146,0.0,u,1152,high_ff,high_ff,443.86,brut_brot,false
blocked,31,131,1.0,1.146,0.0,o,832,high_ff,high_ff,445.254,schuh_show,true
blocked,31,132,1.0,1.146,0.75,o,709,high_ff,high_ff,446.468,ruhm_rom,true
blocked,31,133,1.0,1.146,0.5,o,912,high_ff,high_ff,447.882,huhn_hohn,true
blocked,31,134,1.0,1.146,1.0,o,725,high_ff,high_ff,449.114,tut_tot,true
blocked,31,135,1.0,1.146,1.0,o,1157,high_ff,high_ff,450.788,fuhr_vor,true
blocked,31,136,1.0,1.146,0.0,u,981,high_ff,high_ff,452.272,kur_chor,false
blocked,31,137,1.0,1.146,0.5,o,779,high_ff,high_ff,453.558,tut_tot,true
blocked,31,138,1.0,1.0,0.75,o,837,center,high_ff,454.903,huhn_hohn,true
blocked,31,139,1.0,1.146,0.25,o,789,high_ff,high_ff,456.2,bug_bog,true
blocked,31,140,1.0,1.146,0.5,o,757,high_ff,high_ff,457.462,tut_tot,true
blocked,31,141,1.0,1.146,0.5,o,1365,high_ff,high_ff,459.335,kur_chor,true
blocked,31,142,1.0,1.146,0.25,u,912,high_ff,high_ff,460.751,bug_bog,false
blocked,31,143,1.0,1.146,0.0,u,1013,high_ff,high_ff,462.265,brut_brot,false
blocked,31,144,1.0,1.146,0.5,o,1029,high_ff,high_ff,463.796,kur_chor,true
blocked,31,145,1.0,1.146,0.25,o,800,high_ff,high_ff,465.099,schuh_show,true
blocked,31,146,1.0,1.146,0.75,o,677,high_ff,high_ff,466.285,bug_bog,true
blocked,31,147,1.0,1.146,0.25,o,944,high_ff,high_ff,467.733,huhn_hohn,true
blocked,31,148,1.0,1.146,0.75,o,683,high_ff,high_ff,468.924,kur_chor,true
blocked,31,149,1.0,1.146,0.25,o,944,high_ff,high_ff,470.376,huhn_hohn,true
blocked,31,150,1.0,1.146,0.25,u,912,high_ff,high_ff,471.791,fuhr_vor,false
blocked,31,151,1.0,1.146,0.25,u,949,high_ff,high_ff,473.245,brut_brot,false
blocked,31,152,1.0,1.146,0.0,u,923,high_ff,high_ff,474.672,kur_chor,false
blocked,31,153,1.0,1.146,0.25,u,971,high_ff,high_ff,476.149,brut_brot,false
blocked,31,154,1.0,1.146,0.0,u,741,high_ff,high_ff,477.399,bug_bog,false
blocked,31,155,1.0,1.146,0.5,u,1056,high_ff,high_ff,478.959,ruhm_rom,false
blocked,31,156,1.0,1.0,0.75,u,992,center,high_ff,480.456,fuhr_vor,false
blocked,31,157,1.0,1.146,0.75,o,832,high_ff,high_ff,481.795,schuh_show,true
blocked,31,158,1.0,1.146,0.5,o,784,high_ff,high_ff,483.081,zug_zog,true
blocked,31,159,1.0,1.146,0.75,o,997,high_ff,high_ff,484.582,huhn_hohn,true
blocked,31,160,1.0,1.146,0.75,o,981,high_ff,high_ff,486.068,schuh_show,true
blocked,31,161,1.0,1.146,0.5,o,1840,high_ff,high_ff,488.411,fuhr_vor,true
blocked,31,162,1.0,1.146,0.0,u,917,high_ff,high_ff,489.837,bug_bog,false
blocked,31,163,1.0,1.146,0.75,o,720,high_ff,high_ff,491.061,ruhm_rom,true
blocked,31,164,1.0,1.0,0.25,u,853,center,high_ff,492.421,fuhr_vor,false
blocked,31,168,1.0,1.0,0.75,o,976,center,high_ff,513.438,bug_bog,true
blocked,31,169,1.0,1.146,0.0,u,715,high_ff,high_ff,514.657,kur_chor,false
blocked,31,170,1.0,1.146,0.25,o,933,high_ff,high_ff,516.096,tut_tot,true
blocked,31,171,1.0,1.146,1.0,o,1205,high_ff,high_ff,517.809,brut_brot,true
blocked,31,172,1.0,1.146,0.25,u,1019,high_ff,high_ff,519.338,ruhm_rom,false
blocked,31,173,1.0,1.146,0.25,u,704,high_ff,high_ff,520.544,kur_chor,false
blocked,31,174,1.0,1.146,0.25,u,1296,high_ff,high_ff,522.348,brut_brot,false
blocked,31,175,1.0,1.146,0.75,o,720,high_ff,high_ff,523.577,tut_tot,true
blocked,31,176,1.0,1.0,0.75,u,667,center,high_ff,524.748,kur_chor,false
blocked,31,177,1.0,1.146,0.0,u,1163,high_ff,high_ff,526.419,fuhr_vor,false
blocked,31,178,1.0,1.0,0.5,u,784,center,high_ff,527.706,bug_bog,false
blocked,31,179,1.0,1.146,0.75,o,1755,high_ff,high_ff,529.966,zug_zog,true
blocked,31,180,1.0,1.146,0.75,o,1088,high_ff,high_ff,531.56,schuh_show,true
blocked,31,181,1.0,1.146,0.75,o,1899,high_ff,high_ff,533.964,fuhr_vor,true
blocked,31,182,1.0,1.146,0.5,o,1280,high_ff,high_ff,535.753,schuh_show,true
blocked,31,183,1.0,1.146,0.25,o,1899,high_ff,high_ff,538.156,zug_zog,true
blocked,31,184,1.0,1.146,0.25,o,928,high_ff,high_ff,539.585,tut_tot,true
blocked,31,185,1.0,1.146,0.0,o,1019,high_ff,high_ff,541.104,zug_zog,true
blocked,31,186,1.0,1.146,0.25,u,891,high_ff,high_ff,542.5,bug_bog,false
blocked,31,187,1.0,1.146,0.5,o,1104,high_ff,high_ff,544.108,huhn_hohn,true
blocked,31,188,1.0,1.0,0.75,u,1739,center,high_ff,546.347,brut_brot,false
blocked,31,189,1.0,1.146,0.75,u,1536,high_ff,high_ff,548.385,bug_bog,false
blocked,31,190,1.0,1.146,0.5,u,1163,high_ff,high_ff,550.052,fuhr_vor,false
blocked,31,191,1.0,1.146,0.25,u,1040,high_ff,high_ff,551.596,brut_brot,false
blocked,31,192,1.0,1.0,0.5,u,704,center,high_ff,552.81,kur_chor,false
blocked,31,193,1.0,1.146,0.25,o,1019,high_ff,high_ff,554.333,huhn_hohn,true
blocked,31,194,1.0,1.146,0.5,u,2304,high_ff,high_ff,557.143,fuhr_vor,false
blocked,31,195,1.0,1.146,1.0,o,1179,high_ff,high_ff,558.825,bug_bog,true
blocked,31,196,1.0,1.146,1.0,o,1339,high_ff,high_ff,560.672,schuh_show,true
blocked,31,197,1.0,1.0,0.5,u,789,center,high_ff,561.965,brut_brot,false
blocked,31,198,1.0,1.146,0.0,u,773,high_ff,high_ff,563.244,tut_tot,false
blocked,31,199,1.0,1.0,0.25,u,1083,center,high_ff,564.832,schuh_show,false
blocked,31,200,1.0,1.146,0.5,u,1179,high_ff,high_ff,566.515,ruhm_rom,false
blocked,31,201,1.0,1.0,0.25,u,1589,center,high_ff,568.61,zug_zog,false
blocked,31,202,1.0,1.146,1.0,o,869,high_ff,high_ff,569.983,schuh_show,true
blocked,31,203,1.0,1.146,0.75,o,997,high_ff,high_ff,571.485,huhn_hohn,true
blocked,31,204,1.0,1.146,0.0,u,1120,high_ff,high_ff,573.11,fuhr_vor,false
blocked,31,205,1.0,1.146,0.5,u,2016,high_ff,high_ff,575.629,bug_bog,false
blocked,31,206,1.0,1.146,0.75,o,1456,high_ff,high_ff,577.594,huhn_hohn,true
blocked,31,207,1.0,1.146,0.5,o,2037,high_ff,high_ff,580.135,brut_brot,true
blocked,31,208,1.24,1.0,0.25,u,1893,high_f0,high_f0,597.551,tut_tot,false
blocked,31,209,1.24,1.0,0.75,u,1285,high_f0,high_f0,599.338,huhn_hohn,false
blocked,31,210,1.24,1.0,0.75,o,1184,high_f0,high_f0,601.028,zug_zog,true
blocked,31,211,1.24,1.0,0.75,u,2901,high_f0,high_f0,604.43,ruhm_rom,false
blocked,31,212,1.24,1.0,1.0,o,763,high_f0,high_f0,605.697,brut_brot,true
blocked,31,213,1.24,1.0,0.5,u,709,high_f0,high_f0,606.909,kur_chor,false
blocked,31,214,1.24,1.0,0.25,u,853,high_f0,high_f0,608.267,ruhm_rom,false
blocked,31,215,1.24,1.0,0.5,u,939,high_f0,high_f0,609.712,bug_bog,false
blocked,31,216,1.24,1.0,0.5,u,736,high_f0,high_f0,610.953,huhn_hohn,false
blocked,31,217,1.0,1.0,0.5,o,704,center,high_f0,612.166,schuh_show,true
blocked,31,218,1.24,1.0,0.75,u,656,high_f0,high_f0,613.325,ruhm_rom,false
blocked,31,219,1.24,1.0,0.0,u,1104,high_f0,high_f0,614.934,schuh_show,false
blocked,31,220,1.24,1.0,0.5,u,885,high_f0,high_f0,616.323,bug_bog,false
blocked,31,221,1.24,1.0,0.75,u,1205,high_f0,high_f0,618.03,huhn_hohn,false
blocked,31,222,1.24,1.0,0.0,u,896,high_f0,high_f0,619.433,brut_brot,false
blocked,31,223,1.24,1.0,0.25,u,629,high_f0,high_f0,620.562,tut_tot,false
blocked,31,224,1.24,1.0,1.0,o,656,high_f0,high_f0,621.72,brut_brot,true
blocked,31,225,1.24,1.0,0.25,u,864,high_f0,high_f0,623.085,ruhm_rom,false
blocked,31,226,1.24,1.0,0.75,o,981,high_f0,high_f0,624.569,zug_zog,true
blocked,31,227,1.24,1.0,0.25,u,640,high_f0,high_f0,625.716,bug_bog,false
blocked,31,228,1.24,1.0,0.0,u,1029,high_f0,high_f0,627.252,ruhm_rom,false
blocked,31,229,1.24,1.0,0.0,u,832,high_f0,high_f0,628.586,fuhr_vor,false
blocked,31,230,1.24,1.0,0.25,u,795,high_f0,high_f0,629.89,zug_zog,false
blocked,31,231,1.24,1.0,1.0,o,949,high_f0,high_f0,631.342,schuh_show,true
blocked,31,232,1.24,1.0,1.0,o,757,high_f0,high_f0,632.604,kur_chor,true
blocked,31,233,1.24,1.0,0.0,u,731,high_f0,high_f0,633.834,brut_brot,false
blocked,31,234,1.24,1.0,0.75,o,1221,high_f0,high_f0,635.558,zug_zog,true
blocked,31,235,1.24,1.0,0.25,u,880,high_f0,high_f0,636.944,fuhr_vor,false
blocked,31,236,1.24,1.0,0.25,u,907,high_f0,high_f0,638.359,kur_chor,false
blocked,31,237,1.24,1.0,0.25,o,933,high_f0,high_f0,639.798,schuh_show,true
blocked,31,238,1.24,1.0,1.0,o,928,high_f0,high_f0,641.234,huhn_hohn,true
blocked,31,239,1.24,1.0,1.0,o,859,high_f0,high_f0,642.599,kur_chor,true
blocked,31,240,1.24,1.0,0.5,o,992,high_f0,high_f0,644.096,tut_tot,true
blocked,31,241,1.24,1.0,0.5,o,933,high_f0,high_f0,645.537,kur_chor,true
blocked,31,242,1.0,1.0,0.75,o,1115,center,high_f0,647.155,schuh_show,true
blocked,31,243,1.24,1.0,0.5,u,1563,high_f0,high_f0,649.22,zug_zog,false
blocked,31,244,1.24,1.0,0.5,u,1920,high_f0,high_f0,651.642,ruhm_rom,false
blocked,31,245,1.24,1.0,0.5,u,1040,high_f0,high_f0,653.186,fuhr_vor,false
blocked,31,246,1.24,1.0,0.0,u,651,high_f0,high_f0,654.344,tut_tot,false
blocked,31,247,1.24,1.0,0.25,u,848,high_f0,high_f0,655.695,zug_zog,false
blocked,31,248,1.24,1.0,0.25,u,752,high_f0,high_f0,656.956,ruhm_rom,false
blocked,31,249,1.24,1.0,0.5,o,869,high_f0,high_f0,658.331,schuh_show,true
blocked,31,250,1.24,1.0,0.25,u,859,high_f0,high_f0,659.698,huhn_hohn,false
blocked,31,251,1.24,1.0,0.75,o,635,high_f0,high_f0,660.835,bug_bog,true
blocked,31,252,1.0,1.0,0.25,o,965,center,high_f0,662.305,zug_zog,true
blocked,31,253,1.24,1.0,0.5,u,1595,high_f0,high_f0,664.409,ruhm_rom,false
blocked,31,254,1.24,1.0,0.75,u,2085,high_f0,high_f0,666.997,fuhr_vor,false
blocked,31,255,1.24,1.0,0.75,o,960,high_f0,high_f0,668.457,schuh_show,true
blocked,31,256,1.24,1.0,0.5,o,949,high_f0,high_f0,669.911,kur_chor,true
blocked,31,257,1.24,1.0,0.5,u,859,high_f0,high_f0,671.273,huhn_hohn,false
blocked,31,258,1.24,1.0,0.0,u,832,high_f0,high_f0,672.609,fuhr_vor,false
blocked,31,259,1.24,1.0,0.0,u,1061,high_f0,high_f0,674.177,kur_chor,false
blocked,31,260,1.24,1.0,0.25,u,779,high_f0,high_f0,675.456,huhn_hohn,false
blocked,31,261,1.24,1.0,0.5,o,1189,high_f0,high_f0,677.147,tut_tot,true
blocked,31,262,1.24,1.0,0.0,u,2677,high_f0,high_f0,680.326,bug_bog,false
blocked,31,263,1.24,1.0,0.0,u,837,high_f0,high_f0,681.669,zug_zog,false
blocked,31,264,1.24,1.0,0.75,o,1296,high_f0,high_f0,683.468,huhn_hohn,true
blocked,31,265,1.24,1.0,1.0,o,1221,high_f0,high_f0,685.19,ruhm_rom,true
blocked,31,266,1.24,1.0,0.25,u,859,high_f0,high_f0,686.555,brut_brot,false
blocked,31,267,1.24,1.0,1.0,o,1045,high_f0,high_f0,688.107,ruhm_rom,true
blocked,31,268,1.24,1.0,0.75,o,1152,high_f0,high_f0,689.764,tut_tot,true
blocked,31,269,1.24,1.0,0.5,u,1376,high_f0,high_f0,691.645,huhn_hohn,false
blocked,31,270,1.24,1.0,1.0,o,1157,high_f0,high_f0,693.308,fuhr_vor,true
blocked,31,271,1.24,1.0,0.25,u,757,high_f0,high_f0,694.572,huhn_hohn,false
blocked,31,272,1.24,1.0,0.0,u,1771,high_f0,high_f0,696.85,fuhr_vor,false
blocked,31,273,1.24,1.0,0.75,o,779,high_f0,high_f0,698.137,zug_zog,true
blocked,31,274,1.24,1.0,0.5,o,1067,high_f0,high_f0,699.709,schuh_show,true
blocked,31,275,1.24,1.0,0.75,u,1461,high_f0,high_f0,701.675,bug_bog,false
blocked,31,276,1.24,1.0,1.0,o,1701,high_f0,high_f0,703.879,huhn_hohn,true
blocked,31,277,1.24,1.0,0.5,u,1413,high_f0,high_f0,705.792,brut_brot,false
blocked,31,278,1.0,1.0,0.25,u,779,center,high_f0,707.075,tut_tot,false
blocked,31,279,1.24,1.0,1.0,o,704,high_f0,high_f0,708.287,bug_bog,true
blocked,31,280,1.24,1.0,1.0,o,800,high_f0,high_f0,709.594,zug_zog,true
blocked,31,281,1.24,1.0,0.75,o,971,high_f0,high_f0,711.067,tut_tot,true
blocked,31,282,1.24,1.0,0.25,u,869,high_f0,high_f0,712.44,kur_chor,false
blocked,31,283,1.24,1.0,1.0,o,704,high_f0,high_f0,713.648,bug_bog,true
blocked,31,284,1.24,1.0,0.75,u,1435,high_f0,high_f0,715.585,huhn_hohn,false
blocked,31,285,1.0,1.0,0.5,o,1029,center,high_f0,717.121,kur_chor,true
blocked,31,286,1.24,1.0,0.0,u,832,high_f0,high_f0,718.456,ruhm_rom,false
blocked,31,287,1.24,1.0,0.25,u,779,high_f0,high_f0,719.735,fuhr_vor,false
blocked,31,288,1.24,1.0,0.75,o,843,high_f0,high_f0,721.079,schuh_show,true
blocked,31,289,1.24,1.0,1.0,o,725,high_f0,high_f0,722.305,tut_tot,true
blocked,31,290,1.24,1.0,0.25,u,795,high_f0,high_f0,723.601,fuhr_vor,false
blocked,31,291,1.0,1.0,0.25,o,640,center,high_f0,724.747,bug_bog,true
blocked,31,292,1.24,1.0,1.0,o,1440,high_f0,high_f0,726.69,ruhm_rom,true
blocked,31,293,1.24,1.0,1.0,o,752,high_f0,high_f0,727.942,brut_brot,true
blocked,31,294,1.0,1.0,0.75,o,725,center,high_f0,729.172,kur_chor,true
blocked,31,295,1.24,1.0,0.25,u,1493,high_f0,high_f0,731.172,schuh_show,false
blocked,31,296,1.0,1.0,0.5,u,1051,center,high_f0,732.727,zug_zog,false
blocked,31,297,1.24,1.0,1.0,o,1627,high_f0,high_f0,734.856,fuhr_vor,true
blocked,31,298,1.24,1.0,1.0,o,789,high_f0,high_f0,736.153,kur_chor,true
blocked,31,299,1.24,1.0,0.0,u,821,high_f0,high_f0,737.482,ruhm_rom,false
blocked,31,300,1.24,1.0,1.0,o,651,high_f0,high_f0,738.637,tut_tot,true
blocked,31,301,1.24,1.0,0.75,o,683,high_f0,high_f0,739.827,brut_brot,true
blocked,31,302,1.24,1.0,0.5,o,949,high_f0,high_f0,741.278,zug_zog,true
blocked,31,303,1.24,1.0,0.0,u,3221,high_f0,high_f0,745.005,schuh_show,false
blocked,31,304,1.0,1.0,0.5,o,1221,center,high_f0,746.735,bug_bog,true
blocked,31,305,1.24,1.0,0.5,o,875,high_f0,high_f0,748.115,brut_brot,true
blocked,31,306,1.24,1.0,0.0,u,981,high_f0,high_f0,749.604,huhn_hohn,false
blocked,31,307,1.24,1.0,0.25,u,1269,high_f0,high_f0,751.378,brut_brot,false
blocked,31,308,1.24,1.0,0.0,u,715,high_f0,high_f0,752.598,tut_tot,false
blocked,31,309,1.24,1.0,1.0,o,704,high_f0,high_f0,753.807,zug_zog,true
blocked,31,310,1.24,1.0,0.25,u,720,high_f0,high_f0,755.03,bug_bog,false
blocked,31,311,1.24,1.0,0.75,o,875,high_f0,high_f0,756.41,kur_chor,true
blocked,31,312,1.24,1.0,1.0,o,1403,high_f0,high_f0,773.587,bug_bog,true
blocked,31,313,1.0,1.0,0.5,u,773,center,high_f0,774.864,huhn_hohn,false
blocked,31,314,1.24,1.0,0.75,o,1040,high_f0,high_f0,776.41,tut_tot,true
blocked,31,315,1.24,1.0,0.75,o,1381,high_f0,high_f0,778.297,fuhr_vor,true
blocked,31,316,1.24,1.0,0.0,u,661,high_f0,high_f0,779.459,huhn_hohn,false
blocked,31,317,1.24,1.0,1.0,o,1621,high_f0,high_f0,781.583,ruhm_rom,true
blocked,31,318,1.24,1.0,0.75,o,1920,high_f0,high_f0,784.007,kur_chor,true
blocked,31,319,1.0,1.0,0.5,u,1216,center,high_f0,785.73,fuhr_vor,false
blocked,31,320,1.24,1.0,0.5,u,1184,high_f0,high_f0,787.416,brut_brot,false
blocked,31,321,1.24,1.0,0.25,u,1243,high_f0,high_f0,789.162,huhn_hohn,false
blocked,31,322,1.24,1.0,0.25,u,896,high_f0,high_f0,790.566,bug_bog,false
blocked,31,323,1.24,1.0,0.75,o,1173,high_f0,high_f0,792.243,kur_chor,true
blocked,31,324,1.24,1.0,0.25,u,480,high_f0,high_f0,793.227,bug_bog,false
blocked,31,325,1.24,1.0,0.5,u,741,high_f0,high_f0,794.476,tut_tot,false
blocked,31,326,1.24,1.0,0.0,u,784,high_f0,high_f0,795.765,brut_brot,false
blocked,31,327,1.24,1.0,0.25,u,1643,high_f0,high_f0,797.913,zug_zog,false
blocked,31,328,1.24,1.0,0.0,u,661,high_f0,high_f0,799.081,huhn_hohn,false
blocked,31,329,1.0,1.0,0.25,u,939,center,high_f0,800.522,brut_brot,false
blocked,31,330,1.24,1.0,0.25,u,1083,high_f0,high_f0,802.113,tut_tot,false
blocked,31,331,1.24,1.0,0.25,u,1211,high_f0,high_f0,803.825,kur_chor,false
blocked,31,332,1.24,1.0,0.0,u,656,high_f0,high_f0,804.988,tut_tot,false
blocked,31,333,1.24,1.0,0.0,u,651,high_f0,high_f0,806.145,kur_chor,false
blocked,31,334,1.24,1.0,0.75,o,896,high_f0,high_f0,807.548,bug_bog,true
blocked,31,335,1.0,1.0,0.5,o,688,center,high_f0,808.742,brut_brot,true
blocked,31,336,1.24,1.0,1.0,o,725,high_f0,high_f0,809.969,schuh_show,true
blocked,31,337,1.24,1.0,1.0,o,661,high_f0,high_f0,811.134,bug_bog,true
blocked,31,338,1.24,1.0,0.0,u,1424,high_f0,high_f0,813.06,brut_brot,false
blocked,31,339,1.0,1.0,0.75,o,1227,center,high_f0,814.796,zug_zog,true
blocked,31,340,1.24,1.0,0.75,o,805,high_f0,high_f0,816.105,schuh_show,true
blocked,31,341,1.24,1.0,0.0,u,736,high_f0,high_f0,817.349,tut_tot,false
blocked,31,342,1.24,1.0,1.0,o,1664,high_f0,high_f0,819.519,zug_zog,true
blocked,31,343,1.24,1.0,0.5,u,1515,high_f0,high_f0,821.534,ruhm_rom,false
blocked,31,344,1.24,1.0,0.0,o,928,high_f0,high_f0,822.968,schuh_show,true
blocked,31,345,1.24,1.0,0.25,u,1003,high_f0,high_f0,824.476,brut_brot,false
blocked,31,346,1.0,1.0,0.25,u,1147,center,high_f0,826.126,huhn_hohn,false
blocked,31,347,1.24,1.0,0.25,u,757,high_f0,high_f0,827.387,zug_zog,false
blocked,31,348,1.24,1.0,0.0,u,949,high_f0,high_f0,828.841,ruhm_rom,false
blocked,31,349,1.24,1.0,0.5,u,1045,high_f0,high_f0,830.388,tut_tot,false
blocked,31,350,1.24,1.0,0.75,o,747,high_f0,high_f0,831.636,brut_brot,true
blocked,31,351,1.24,1.0,0.25,u,896,high_f0,high_f0,833.037,fuhr_vor,false
blocked,31,352,1.24,1.0,0.25,u,1269,high_f0,high_f0,834.81,schuh_show,false
blocked,31,353,1.0,1.0,0.25,u,1472,center,high_f0,836.788,fuhr_vor,false
blocked,31,354,1.24,1.0,0.75,o,741,high_f0,high_f0,838.032,brut_brot,true
blocked,31,355,1.24,1.0,0.5,u,1136,high_f0,high_f0,839.669,fuhr_vor,false
blocked,31,356,1.24,1.0,1.0,o,752,high_f0,high_f0,840.926,schuh_show,true
blocked,31,357,1.24,1.0,0.5,u,917,high_f0,high_f0,842.349,zug_zog,false
blocked,31,358,1.24,1.0,0.5,u,1115,high_f0,high_f0,843.967,kur_chor,false
blocked,31,359,1.24,1.0,0.0,u,949,high_f0,high_f0,845.419,fuhr_vor,false
blocked,31,360,1.24,1.0,0.5,o,592,high_f0,high_f0,846.518,brut_brot,true
blocked,31,361,1.24,1.0,0.5,u,693,high_f0,high_f0,847.714,fuhr_vor,false
blocked,31,362,1.24,1.0,0.0,u,853,high_f0,high_f0,849.075,bug_bog,false
blocked,31,363,1.24,1.0,0.75,o,843,high_f0,high_f0,850.423,tut_tot,true
blocked,31,364,1.24,1.0,0.5,o,976,high_f0,high_f0,851.905,schuh_show,true
blocked,31,365,1.0,1.0,0.75,o,1083,center,high_f0,853.494,huhn_hohn,true
blocked,31,366,1.24,1.0,1.0,o,1184,high_f0,high_f0,855.184,fuhr_vor,true
blocked,31,367,1.24,1.0,0.25,u,811,high_f0,high_f0,856.499,ruhm_rom,false
blocked,31,368,1.24,1.0,0.5,u,683,high_f0,high_f0,857.688,bug_bog,false
blocked,31,369,1.0,1.0,0.5,u,912,center,high_f0,859.105,tut_tot,false
blocked,31,370,1.24,1.0,0.75,o,763,high_f0,high_f0,860.367,kur_chor,true
blocked,31,371,1.24,1.0,1.0,o,1104,high_f0,high_f0,861.977,zug_zog,true
blocked,31,372,1.24,1.0,0.0,u,629,high_f0,high_f0,863.11,bug_bog,false
blocked,31,373,1.24,1.0,0.75,u,971,high_f0,high_f0,864.588,ruhm_rom,false
blocked,31,374,1.24,1.0,1.0,o,811,high_f0,high_f0,865.908,tut_tot,true
blocked,31,375,1.0,1.0,0.25,u,704,center,high_f0,867.117,kur_chor,false
blocked,31,376,1.24,1.0,0.0,u,720,high_f0,high_f0,868.343,bug_bog,false
blocked,31,377,1.24,1.0,1.0,o,939,high_f0,high_f0,869.788,huhn_hohn,true
blocked,31,378,1.24,1.0,0.75,o,939,high_f0,high_f0,871.236,brut_brot,true
blocked,31,379,1.0,1.0,0.5,u,1611,center,high_f0,873.35,ruhm_rom,false
blocked,31,380,1.24,1.0,0.5,o,773,high_f0,high_f0,874.631,schuh_show,true
blocked,31,381,1.24,1.0,0.0,u,693,high_f0,high_f0,875.832,huhn_hohn,false
blocked,31,382,1.0,1.0,0.75,o,619,center,high_f0,876.957,tut_tot,true
blocked,31,383,1.24,1.0,0.5,u,923,high_f0,high_f0,878.388,fuhr_vor,false
blocked,31,384,1.24,1.0,0.25,u,1525,high_f0,high_f0,880.416,brut_brot,false
blocked,31,385,1.24,1.0,1.0,o,773,high_f0,high_f0,881.695,kur_chor,true
blocked,31,386,1.24,1.0,0.0,u,640,high_f0,high_f0,882.84,zug_zog,false
blocked,31,387,1.0,1.0,0.75,o,539,center,high_f0,883.885,bug_bog,true
blocked,31,388,1.24,1.0,0.0,u,1413,high_f0,high_f0,885.807,schuh_show,false
blocked,31,389,1.24,1.0,0.5,u,1280,high_f0,high_f0,887.589,huhn_hohn,false
blocked,31,390,1.24,1.0,0.25,u,933,high_f0,high_f0,889.024,tut_tot,false
blocked,31,391,1.24,1.0,0.75,u,1877,high_f0,high_f0,891.407,fuhr_vor,false
blocked,31,392,1.24,1.0,1.0,o,869,high_f0,high_f0,892.782,schuh_show,true
blocked,31,393,1.24,1.0,0.0,u,725,high_f0,high_f0,894.014,zug_zog,false
blocked,31,394,1.24,1.0,1.0,o,2080,high_f0,high_f0,896.6,fuhr_vor,true
blocked,31,395,1.24,1.0,1.0,o,1424,high_f0,high_f0,898.524,brut_brot,true
blocked,31,396,1.24,1.0,0.5,u,1163,high_f0,high_f0,900.197,ruhm_rom,false
blocked,31,397,1.24,1.0,0.75,o,1307,high_f0,high_f0,902.009,schuh_show,true
blocked,31,398,1.0,1.0,0.75,o,1408,center,high_f0,903.919,fuhr_vor,true
blocked,31,399,1.24,1.0,0.0,u,1467,high_f0,high_f0,905.888,kur_chor,false
blocked,31,400,1.24,1.0,0.25,o,965,high_f0,high_f0,907.358,schuh_show,true
blocked,31,401,1.0,1.0,0.25,u,864,center,high_f0,908.727,ruhm_rom,false
blocked,31,402,1.24,1.0,0.5,u,1077,high_f0,high_f0,910.314,bug_bog,false
blocked,31,403,1.0,1.0,0.75,o,608,center,high_f0,911.425,brut_brot,true
blocked,31,404,1.24,1.0,0.5,o,2064,high_f0,high_f0,913.993,zug_zog,true
blocked,31,405,1.24,1.0,0.75,o,1307,high_f0,high_f0,915.808,fuhr_vor,true
blocked,31,406,1.24,1.0,1.0,o,1867,high_f0,high_f0,918.181,huhn_hohn,true
blocked,31,407,1.24,1.0,1.0,o,859,high_f0,high_f0,919.544,tut_tot,true
blocked,31,408,1.24,1.0,0.0,u,1221,high_f0,high_f0,921.271,zug_zog,false
blocked,31,409,1.0,1.0,0.75,o,613,center,high_f0,922.387,ruhm_rom,true
blocked,31,410,1.24,1.0,0.0,u,1323,high_f0,high_f0,924.212,kur_chor,false
blocked,31,411,1.0,1.0,0.25,o,811,center,high_f0,925.528,schuh_show,true
blocked,31,412,1.24,1.0,0.75,u,1600,high_f0,high_f0,927.634,bug_bog,false
blocked,31,413,1.24,1.0,0.25,u,1205,high_f0,high_f0,929.341,kur_chor,false
blocked,31,414,1.24,1.0,0.75,o,576,high_f0,high_f0,930.423,ruhm_rom,true
blocked,31,415,0.806,1.0,0.0,o,1157,low_f0,low_f0,947.095,ruhm_rom,true
blocked,31,416,0.806,1.0,0.25,o,1115,low_f0,low_f0,948.713,tut_tot,true
blocked,31,417,0.806,1.0,0.75,o,821,low_f0,low_f0,950.042,schuh_show,true
blocked,31,418,0.806,1.0,1.0,o,773,low_f0,low_f0,951.322,zug_zog,true
blocked,31,419,1.0,1.0,0.5,o,683,center,low_f0,952.509,bug_bog,true
blocked,31,420,0.806,1.0,0.0,u,1419,low_f0,low_f0,954.434,ruhm_rom,false
blocked,31,421,1.0,1.0,0.5,u,1968,center,low_f0,956.905,huhn_hohn,false
blocked,31,422,0.806,1.0,1.0,o,2117,low_f0,low_f0,959.525,tut_tot,true
blocked,31,423,0.806,1.0,1.0,o,3168,low_f0,low_f0,963.198,huhn_hohn,true
blocked,31,424,0.806,1.0,0.25,o,912,low_f0,low_f0,964.614,schuh_show,true
blocked,31,425,0.806,1.0,0.0,u,891,low_f0,low_f0,966.01,fuhr_vor,false
blocked,31,426,0.806,1.0,1.0,o,1216,low_f0,low_f0,967.727,zug_zog,true
blocked,31,427,0.806,1.0,1.0,o,635,low_f0,low_f0,968.867,tut_tot,true
blocked,31,428,0.806,1.0,1.0,o,656,low_f0,low_f0,970.026,huhn_hohn,true
blocked,31,429,1.0,1.0,0.5,o,1803,center,low_f0,972.337,kur_chor,true
blocked,31,430,0.806,1.0,0.25,o,544,low_f0,low_f0,973.385,ruhm_rom,true
blocked,31,431,0.806,1.0,0.75,o,603,low_f0,low_f0,974.491,bug_bog,true
blocked,31,432,0.806,1.0,0.25,u,2027,low_f0,low_f0,977.026,ruhm_rom,false
blocked,31,433,1.0,1.0,0.75,o,1611,center,low_f0,979.139,kur_chor,true
blocked,31,434,0.806,1.0,0.5,o,1040,low_f0,low_f0,980.682,zug_zog,true
blocked,31,435,1.0,1.0,0.75,o,1077,center,low_f0,982.26,tut_tot,true
blocked,31,436,0.806,1.0,0.75,o,1136,low_f0,low_f0,983.896,ruhm_rom,true
blocked,31,437,0.806,1.0,0.75,o,992,low_f0,low_f0,985.393,kur_chor,true
blocked,31,438,1.0,1.0,0.5,o,885,center,low_f0,986.784,schuh_show,true
blocked,31,439,0.806,1.0,0.5,o,747,low_f0,low_f0,988.039,brut_brot,true
blocked,31,440,0.806,1.0,0.0,u,976,low_f0,low_f0,989.521,tut_tot,false
blocked,31,441,1.0,1.0,0.5,u,1280,center,low_f0,991.308,fuhr_vor,false
blocked,31,442,0.806,1.0,0.25,o,571,low_f0,low_f0,992.385,brut_brot,true
blocked,31,443,0.806,1.0,0.25,u,912,low_f0,low_f0,993.803,kur_chor,false
blocked,31,444,0.806,1.0,0.75,o,1221,low_f0,low_f0,995.532,fuhr_vor,true
blocked,31,445,1.0,1.0,0.5,u,965,center,low_f0,997.004,ruhm_rom,false
blocked,31,446,0.806,1.0,0.25,o,907,low_f0,low_f0,998.409,schuh_show,true
blocked,31,447,0.806,1.0,0.0,u,1088,low_f0,low_f0,999.999,bug_bog,false
blocked,31,448,0.806,1.0,1.0,o,565,low_f0,low_f0,1001.068,schuh_show,true
blocked,31,449,0.806,1.0,0.5,o,1120,low_f0,low_f0,1002.693,tut_tot,true
blocked,31,450,0.806,1.0,0.25,o,1179,low_f0,low_f0,1004.377,huhn_hohn,true
blocked,31,451,0.806,1.0,0.5,o,2464,low_f0,low_f0,1007.344,fuhr_vor,true
blocked,31,452,0.806,1.0,0.0,u,1008,low_f0,low_f0,1008.857,kur_chor,false
blocked,31,453,1.0,1.0,0.75,o,875,center,low_f0,1010.235,fuhr_vor,true
blocked,31,454,0.806,1.0,1.0,o,1152,low_f0,low_f0,1011.895,kur_chor,true
blocked,31,455,1.0,1.0,0.25,u,837,center,low_f0,1013.232,brut_brot,false
blocked,31,456,0.806,1.0,0.5,o,853,low_f0,low_f0,1014.595,zug_zog,true
blocked,31,457,0.806,1.0,0.0,u,752,low_f0,low_f0,1015.853,huhn_hohn,false
blocked,31,458,1.0,1.0,0.25,u,880,center,low_f0,1017.237,bug_bog,false
blocked,31,459,0.806,1.0,0.25,o,773,low_f0,low_f0,1018.515,schuh_show,true
blocked,31,460,0.806,1.0,0.25,u,885,low_f0,low_f0,1019.902,kur_chor,false
blocked,31,461,0.806,1.0,1.0,o,896,low_f0,low_f0,1021.301,ruhm_rom,true
blocked,31,462,0.806,1.0,0.75,o,800,low_f0,low_f0,1022.606,tut_tot,true
blocked,31,463,0.806,1.0,0.0,o,1125,low_f0,low_f0,1024.236,schuh_show,true
blocked,31,464,0.806,1.0,0.75,o,544,low_f0,low_f0,1025.284,tut_tot,true
blocked,31,465,0.806,1.0,0.5,u,768,low_f0,low_f0,1026.555,huhn_hohn,false
blocked,31,466,0.806,1.0,0.25,o,517,low_f0,low_f0,1027.58,brut_brot,true
blocked,31,467,0.806,1.0,0.25,u,1973,low_f0,low_f0,1030.061,kur_chor,false
blocked,31,468,0.806,1.0,0.5,o,1797,low_f0,low_f0,1032.365,brut_brot,true
blocked,31,469,0.806,1.0,0.25,u,848,low_f0,low_f0,1033.716,huhn_hohn,false
blocked,31,470,0.806,1.0,0.5,u,960,low_f0,low_f0,1035.182,ruhm_rom,false
blocked,31,471,0.806,1.0,0.75,o,597,low_f0,low_f0,1036.286,bug_bog,true
blocked,31,472,0.806,1.0,0.25,u,832,low_f0,low_f0,1037.621,fuhr_vor,false
blocked,31,473,0.806,1.0,0.5,o,1360,low_f0,low_f0,1039.483,huhn_hohn,true
blocked,31,474,0.806,1.0,0.0,u,731,low_f0,low_f0,1040.721,zug_zog,false
blocked,31,475,0.806,1.0,0.5,o,667,low_f0,low_f0,1041.896,bug_bog,true
blocked,31,476,0.806,1.0,0.5,o,864,low_f0,low_f0,1043.266,ruhm_rom,true
blocked,31,477,1.0,1.0,0.25,u,640,center,low_f0,1044.413,fuhr_vor,false
blocked,31,478,0.806,1.0,1.0,o,619,low_f0,low_f0,1045.538,brut_brot,true
blocked,31,479,0.806,1.0,1.0,o,880,low_f0,low_f0,1046.926,bug_bog,true
blocked,31,480,0.806,1.0,0.5,o,1088,low_f0,low_f0,1048.516,huhn_hohn,true
blocked,31,481,0.806,1.0,0.25,o,763,low_f0,low_f0,1049.783,zug_zog,true
blocked,31,482,1.0,1.0,0.25,o,864,center,low_f0,1051.152,schuh_show,true
blocked,31,483,0.806,1.0,0.25,u,1008,low_f0,low_f0,1052.661,kur_chor,false
blocked,31,484,0.806,1.0,0.0,u,773,low_f0,low_f0,1053.939,zug_zog,false
blocked,31,485,0.806,1.0,0.0,u,864,low_f0,low_f0,1055.307,fuhr_vor,false
blocked,31,486,0.806,1.0,0.0,u,1307,low_f0,low_f0,1057.119,huhn_hohn,false
blocked,31,487,0.806,1.0,0.75,o,757,low_f0,low_f0,1058.382,ruhm_rom,true
blocked,31,488,0.806,1.0,0.75,o,693,low_f0,low_f0,1059.583,schuh_show,true
blocked,31,489,0.806,1.0,1.0,o,757,low_f0,low_f0,1060.844,tut_tot,true
blocked,31,490,0.806,1.0,0.75,o,651,low_f0,low_f0,1061.999,brut_brot,true
blocked,31,491,0.806,1.0,1.0,o,683,low_f0,low_f0,1063.187,huhn_hohn,true
blocked,31,492,0.806,1.0,0.0,u,933,low_f0,low_f0,1064.626,ruhm_rom,false
blocked,31,493,0.806,1.0,0.5,o,1248,low_f0,low_f0,1066.383,tut_tot,true
blocked,31,494,0.806,1.0,0.75,o,987,low_f0,low_f0,1067.874,zug_zog,true
blocked,31,495,0.806,1.0,1.0,o,1040,low_f0,low_f0,1069.421,schuh_show,true
blocked,31,496,0.806,1.0,0.75,o,757,low_f0,low_f0,1070.687,kur_chor,true
blocked,31,497,1.0,1.0,0.25,u,656,center,low_f0,1071.849,huhn_hohn,false
blocked,31,498,0.806,1.0,1.0,o,592,low_f0,low_f0,1072.947,brut_brot,true
blocked,31,499,0.806,1.0,0.0,u,1360,low_f0,low_f0,1074.814,ruhm_rom,false
blocked,31,500,0.806,1.0,0.5,o,741,low_f0,low_f0,1076.059,schuh_show,true
blocked,31,501,0.806,1.0,1.0,o,1061,low_f0,low_f0,1077.623,tut_tot,true
blocked,31,502,1.0,1.0,0.75,u,656,center,low_f0,1078.779,huhn_hohn,false
blocked,31,503,0.806,1.0,0.5,o,923,low_f0,low_f0,1080.204,bug_bog,true
blocked,31,504,0.806,1.0,0.75,o,1280,low_f0,low_f0,1081.988,ruhm_rom,true
blocked,31,505,0.806,1.0,0.0,u,800,low_f0,low_f0,1083.292,brut_brot,false
blocked,31,506,0.806,1.0,0.75,o,709,low_f0,low_f0,1084.502,huhn_hohn,true
blocked,31,507,0.806,1.0,0.75,o,949,low_f0,low_f0,1085.956,schuh_show,true
blocked,31,508,0.806,1.0,0.0,u,715,low_f0,low_f0,1087.177,kur_chor,false
blocked,31,509,0.806,1.0,0.5,u,912,low_f0,low_f0,1088.587,fuhr_vor,false
blocked,31,510,0.806,1.0,1.0,o,715,low_f0,low_f0,1089.803,kur_chor,true
blocked,31,511,0.806,1.0,0.25,u,715,low_f0,low_f0,1091.022,ruhm_rom,false
blocked,31,512,0.806,1.0,0.0,u,592,low_f0,low_f0,1092.113,bug_bog,false
blocked,31,513,1.0,1.0,0.25,u,736,center,low_f0,1093.351,ruhm_rom,false
blocked,31,514,0.806,1.0,0.25,u,853,low_f0,low_f0,1094.708,zug_zog,false
blocked,31,515,1.0,1.0,0.75,o,885,center,low_f0,1096.095,schuh_show,true
blocked,31,516,0.806,1.0,0.0,u,731,low_f0,low_f0,1097.33,brut_brot,false
blocked,31,517,0.806,1.0,0.25,o,821,low_f0,low_f0,1098.657,bug_bog,true
blocked,31,518,0.806,1.0,0.5,u,832,low_f0,low_f0,1099.991,fuhr_vor,false
blocked,31,519,0.806,1.0,1.0,o,949,low_f0,low_f0,1116.458,zug_zog,true
blocked,31,520,0.806,1.0,0.0,u,736,low_f0,low_f0,1117.699,fuhr_vor,false
blocked,31,521,0.806,1.0,0.0,u,869,low_f0,low_f0,1119.075,zug_zog,false
blocked,31,522,0.806,1.0,0.75,o,560,low_f0,low_f0,1120.14,bug_bog,true
blocked,31,523,0.806,1.0,0.0,u,603,low_f0,low_f0,1121.248,brut_brot,false
blocked,31,524,0.806,1.0,0.0,u,661,low_f0,low_f0,1122.418,tut_tot,false
blocked,31,525,0.806,1.0,0.75,o,715,low_f0,low_f0,1123.637,huhn_hohn,true
blocked,31,526,0.806,1.0,0.5,u,667,low_f0,low_f0,1124.808,tut_tot,false
blocked,31,527,0.806,1.0,0.5,o,597,low_f0,low_f0,1125.914,brut_brot,true
blocked,31,528,0.806,1.0,0.0,u,2235,low_f0,low_f0,1128.649,tut_tot,false
blocked,31,529,0.806,1.0,0.75,o,747,low_f0,low_f0,1129.899,schuh_show,true
blocked,31,530,0.806,1.0,0.75,o,1307,low_f0,low_f0,1131.712,tut_tot,true
blocked,31,531,0.806,1.0,1.0,o,603,low_f0,low_f0,1132.822,bug_bog,true
blocked,31,532,0.806,1.0,0.75,o,491,low_f0,low_f0,1133.815,brut_brot,true
blocked,31,533,0.806,1.0,0.25,u,971,low_f0,low_f0,1135.287,huhn_hohn,false
blocked,31,534,0.806,1.0,0.5,u,843,low_f0,low_f0,1136.632,kur_chor,false
blocked,31,535,0.806,1.0,1.0,o,1061,low_f0,low_f0,1138.197,fuhr_vor,true
blocked,31,536,0.806,1.0,0.0,u,885,low_f0,low_f0,1139.586,zug_zog,false
blocked,31,537,0.806,1.0,0.25,u,843,low_f0,low_f0,1140.933,tut_tot,false
blocked,31,538,0.806,1.0,1.0,o,923,low_f0,low_f0,1142.361,zug_zog,true
blocked,31,539,0.806,1.0,0.5,u,1291,low_f0,low_f0,1144.156,bug_bog,false
blocked,31,540,0.806,1.0,1.0,o,853,low_f0,low_f0,1145.515,ruhm_rom,true
blocked,31,541,0.806,1.0,0.5,o,821,low_f0,low_f0,1146.843,schuh_show,true
blocked,31,542,0.806,1.0,0.75,o,768,low_f0,low_f0,1148.116,zug_zog,true
blocked,31,543,1.0,1.0,0.75,o,571,center,low_f0,1149.196,brut_brot,true
blocked,31,544,0.806,1.0,0.0,u,619,low_f0,low_f0,1150.318,bug_bog,false
blocked,31,545,0.806,1.0,1.0,o,667,low_f0,low_f0,1151.49,ruhm_rom,true
blocked,31,546,0.806,1.0,0.25,o,917,low_f0,low_f0,1152.91,zug_zog,true
blocked,31,547,0.806,1.0,0.5,o,715,low_f0,low_f0,1154.127,tut_tot,true
blocked,31,548,0.806,1.0,1.0,o,891,low_f0,low_f0,1155.519,fuhr_vor,true
blocked,31,549,0.806,1.0,0.5,o,555,low_f0,low_f0,1156.582,brut_brot,true
blocked,31,550,0.806,1.0,0.0,u,715,low_f0,low_f0,1157.801,bug_bog,false
blocked,31,551,0.806,1.0,1.0,o,576,low_f0,low_f0,1158.886,kur_chor,true
blocked,31,552,0.806,1.0,0.5,o,965,low_f0,low_f0,1160.359,huhn_hohn,true
blocked,31,553,0.806,1.0,0.5,u,827,low_f0,low_f0,1161.69,bug_bog,false
blocked,31,554,1.0,1.0,0.5,u,704,center,low_f0,1162.902,zug_zog,false
blocked,31,555,0.806,1.0,1.0,o,555,low_f0,low_f0,1163.963,ruhm_rom,true
blocked,31,556,0.806,1.0,0.25,u,933,low_f0,low_f0,1165.404,tut_tot,false
blocked,31,557,0.806,1.0,0.25,u,645,low_f0,low_f0,1166.554,bug_bog,false
blocked,31,558,0.806,1.0,0.75,o,619,low_f0,low_f0,1167.678,kur_chor,true
blocked,31,559,1.0,1.0,0.75,o,1413,center,low_f0,1169.594,zug_zog,true
blocked,31,560,0.806,1.0,0.0,u,885,low_f0,low_f0,1170.987,kur_chor,false
blocked,31,561,0.806,1.0,0.75,o,960,low_f0,low_f0,1172.455,brut_brot,true
blocked,31,562,0.806,1.0,0.75,o,1051,low_f0,low_f0,1174.008,huhn_hohn,true
blocked,31,563,1.0,1.0,0.25,u,592,center,low_f0,1175.11,zug_zog,false
blocked,31,564,0.806,1.0,0.0,o,736,low_f0,low_f0,1176.351,schuh_show,true
blocked,31,565,0.806,1.0,0.25,u,1029,low_f0,low_f0,1177.881,fuhr_vor,false
blocked,31,566,0.806,1.0,0.0,o,923,low_f0,low_f0,1179.306,schuh_show,true
blocked,31,567,1.0,1.0,0.5,o,715,center,low_f0,1180.526,brut_brot,true
blocked,31,568,0.806,1.0,0.75,o,720,low_f0,low_f0,1181.751,huhn_hohn,true
blocked,31,569,0.806,1.0,0.25,u,709,low_f0,low_f0,1182.966,brut_brot,false
blocked,31,570,0.806,1.0,0.5,o,1355,low_f0,low_f0,1184.826,ruhm_rom,true
blocked,31,571,0.806,1.0,1.0,o,757,low_f0,low_f0,1186.084,fuhr_vor,true
blocked,31,572,0.806,1.0,0.75,o,709,low_f0,low_f0,1187.297,tut_tot,true
blocked,31,573,0.806,1.0,0.75,o,720,low_f0,low_f0,1188.523,zug_zog,true
blocked,31,574,0.806,1.0,0.5,o,725,low_f0,low_f0,1189.754,kur_chor,true
blocked,31,575,0.806,1.0,0.75,o,715,low_f0,low_f0,1190.969,brut_brot,true
blocked,31,576,0.806,1.0,0.5,o,1077,low_f0,low_f0,1192.547,zug_zog,true
blocked,31,577,0.806,1.0,0.25,u,741,low_f0,low_f0,1193.791,bug_bog,false
blocked,31,578,0.806,1.0,0.5,o,608,low_f0,low_f0,1194.904,kur_chor,true
blocked,31,579,0.806,1.0,0.75,o,1024,low_f0,low_f0,1196.432,fuhr_vor,true
blocked,31,580,0.806,1.0,0.0,u,933,low_f0,low_f0,1197.874,huhn_hohn,false
blocked,31,581,0.806,1.0,0.25,u,864,low_f0,low_f0,1199.243,fuhr_vor,false
blocked,31,582,0.806,1.0,0.25,u,960,low_f0,low_f0,1200.712,schuh_show,false
blocked,31,583,1.0,1.0,0.5,u,827,center,low_f0,1202.041,tut_tot,false
blocked,31,584,0.806,1.0,0.0,u,965,low_f0,low_f0,1203.512,fuhr_vor,false
blocked,31,585,1.0,1.0,0.75,u,1131,center,low_f0,1205.15,ruhm_rom,false
blocked,31,586,0.806,1.0,1.0,o,821,low_f0,low_f0,1206.477,schuh_show,true
blocked,31,587,0.806,1.0,0.75,o,869,low_f0,low_f0,1207.849,zug_zog,true
blocked,31,588,0.806,1.0,1.0,o,987,low_f0,low_f0,1209.339,bug_bog,true
blocked,31,589,0.806,1.0,0.75,o,923,low_f0,low_f0,1210.768,ruhm_rom,true
blocked,31,590,0.806,1.0,0.0,u,1248,low_f0,low_f0,1212.521,kur_chor,false
blocked,31,591,0.806,1.0,0.0,u,1013,low_f0,low_f0,1214.039,tut_tot,false
blocked,31,592,0.806,1.0,0.75,o,864,low_f0,low_f0,1215.409,bug_bog,true
blocked,31,593,0.806,1.0,0.75,o,1099,low_f0,low_f0,1217.007,fuhr_vor,true
blocked,31,594,0.806,1.0,0.0,u,1435,low_f0,low_f0,1218.943,brut_brot,false
blocked,31,595,0.806,1.0,0.5,o,656,low_f0,low_f0,1220.101,schuh_show,true
blocked,31,596,0.806,1.0,0.25,o,1040,low_f0,low_f0,1221.642,zug_zog,true
blocked,31,597,0.806,1.0,0.25,o,1653,low_f0,low_f0,1223.801,ruhm_rom,true
blocked,31,598,0.806,1.0,0.5,o,715,low_f0,low_f0,1225.019,schuh_show,true
blocked,31,599,0.806,1.0,1.0,o,1413,low_f0,low_f0,1226.936,fuhr_vor,true
blocked,31,600,0.806,1.0,1.0,o,619,low_f0,low_f0,1228.063,bug_bog,true
blocked,31,601,0.806,1.0,0.25,u,853,low_f0,low_f0,1229.422,tut_tot,false
blocked,31,602,0.806,1.0,0.25,u,923,low_f0,low_f0,1230.849,fuhr_vor,false
blocked,31,603,0.806,1.0,0.75,o,784,low_f0,low_f0,1232.14,kur_chor,true
blocked,31,604,0.806,1.0,0.0,u,859,low_f0,low_f0,1233.508,huhn_hohn,false
blocked,31,605,0.806,1.0,0.5,o,784,low_f0,low_f0,1234.794,zug_zog,true
blocked,31,606,0.806,1.0,1.0,o,736,low_f0,low_f0,1236.032,brut_brot,true
blocked,31,607,0.806,1.0,0.75,o,1077,low_f0,low_f0,1237.61,fuhr_vor,true
blocked,31,608,1.0,1.0,0.75,o,752,center,low_f0,1238.869,bug_bog,true
blocked,31,609,0.806,1.0,0.5,o,699,low_f0,low_f0,1240.074,ruhm_rom,true
blocked,31,610,1.0,1.0,0.25,u,725,center,low_f0,1241.302,tut_tot,false
blocked,31,611,0.806,1.0,0.0,u,1163,low_f0,low_f0,1242.969,schuh_show,false
blocked,31,612,0.806,1.0,1.0,o,933,low_f0,low_f0,1244.406,huhn_hohn,true
blocked,31,613,1.0,1.0,0.25,u,677,center,low_f0,1245.584,kur_chor,false
blocked,31,614,0.806,1.0,0.5,u,800,low_f0,low_f0,1246.89,fuhr_vor,false
blocked,31,615,0.806,1.0,1.0,o,779,low_f0,low_f0,1248.175,brut_brot,true
blocked,31,616,0.806,1.0,0.25,u,741,low_f0,low_f0,1249.42,huhn_hohn,false
blocked,31,617,0.806,1.0,1.0,o,1029,low_f0,low_f0,1250.959,schuh_show,true
blocked,31,618,0.806,1.0,0.5,u,2117,low_f0,low_f0,1253.581,kur_chor,false
blocked,31,619,0.806,1.0,0.25,u,763,low_f0,low_f0,1254.845,bug_bog,false
blocked,31,620,0.806,1.0,1.0,o,987,low_f0,low_f0,1256.339,kur_chor,true
blocked,31,621,0.806,1.0,0.25,u,1269,low_f0,low_f0,1258.117,brut_brot,false
blocked,31,622,1.0,0.873,1.0,o,1173,low_ff,low_ff,1274.806,zug_zog,true
blocked,31,623,1.0,0.873,1.0,o,1205,low_ff,low_ff,1276.515,ruhm_rom,true
blocked,31,624,1.0,0.873,0.25,u,736,low_ff,low_ff,1277.756,brut_brot,false
blocked,31,625,1.0,0.873,1.0,o,741,low_ff,low_ff,1278.999,schuh_show,true
blocked,31,626,1.0,0.873,0.75,u,1195,low_ff,low_ff,1280.702,ruhm_rom,false
blocked,31,627,1.0,1.0,0.5,o,1115,center,low_ff,1282.324,schuh_show,true
blocked,31,628,1.0,0.873,0.25,u,864,low_ff,low_ff,1283.692,fuhr_vor,false
blocked,31,629,1.0,0.873,0.5,o,597,low_ff,low_ff,1284.792,bug_bog,true
blocked,31,630,1.0,0.873,0.0,u,699,low_ff,low_ff,1285.998,fuhr_vor,false
blocked,31,631,1.0,0.873,1.0,o,624,low_ff,low_ff,1287.126,tut_tot,true
blocked,31,632,1.0,0.873,0.0,u,795,low_ff,low_ff,1288.426,zug_zog,false
blocked,31,633,1.0,0.873,0.75,o,725,low_ff,low_ff,1289.655,huhn_hohn,true
blocked,31,634,1.0,1.0,0.75,o,821,center,low_ff,1290.979,kur_chor,true
blocked,31,635,1.0,0.873,0.0,o,1141,low_ff,low_ff,1292.63,schuh_show,true
blocked,31,636,1.0,0.873,0.75,o,683,low_ff,low_ff,1293.818,kur_chor,true
blocked,31,637,1.0,0.873,0.25,u,1573,low_ff,low_ff,1295.898,bug_bog,false
blocked,31,638,1.0,0.873,0.5,u,1072,low_ff,low_ff,1297.476,huhn_hohn,false
blocked,31,639,1.0,1.0,0.25,o,560,center,low_ff,1298.54,bug_bog,true
blocked,31,640,1.0,0.873,1.0,o,731,low_ff,low_ff,1299.772,kur_chor,true
blocked,31,641,1.0,1.0,0.25,u,661,center,low_ff,1300.937,ruhm_rom,false
blocked,31,642,1.0,0.873,0.0,u,773,low_ff,low_ff,1302.216,huhn_hohn,false
blocked,31,643,1.0,1.0,0.75,o,485,center,low_ff,1303.209,bug_bog,true
blocked,31,644,1.0,0.873,0.0,u,656,low_ff,low_ff,1304.373,fuhr_vor,false
blocked,31,645,1.0,0.873,0.5,o,848,low_ff,low_ff,1305.727,schuh_show,true
blocked,31,646,1.0,0.873,0.5,u,619,low_ff,low_ff,1306.852,bug_bog,false
blocked,31,647,1.0,0.873,0.75,o,667,low_ff,low_ff,1308.025,schuh_show,true
blocked,31,648,1.0,0.873,0.75,u,667,low_ff,low_ff,1309.197,fuhr_vor,false
blocked,31,649,1.0,0.873,1.0,o,779,low_ff,low_ff,1310.478,ruhm_rom,true
blocked,31,650,1.0,0.873,0.75,o,1019,low_ff,low_ff,1312.005,kur_chor,true
blocked,31,651,1.0,0.873,0.0,u,1205,low_ff,low_ff,1313.711,ruhm_rom,false
blocked,31,652,1.0,0.873,0.0,u,773,low_ff,low_ff,1314.993,tut_tot,false
blocked,31,653,1.0,0.873,0.5,o,629,low_ff,low_ff,1316.124,kur_chor,true
blocked,31,654,1.0,1.0,0.25,u,1045,center,low_ff,1317.676,fuhr_vor,false
blocked,31,655,1.0,0.873,1.0,o,757,low_ff,low_ff,1318.938,kur_chor,true
blocked,31,656,1.0,0.873,1.0,o,869,low_ff,low_ff,1320.312,brut_brot,true
blocked,31,657,1.0,1.0,0.5,u,1061,center,low_ff,1321.881,tut_tot,false
blocked,31,658,1.0,0.873,0.25,u,848,low_ff,low_ff,1323.239,huhn_hohn,false
blocked,31,659,1.0,0.873,0.25,u,1083,low_ff,low_ff,1324.824,bug_bog,false
blocked,31,660,1.0,0.873,0.25,u,923,low_ff,low_ff,1326.251,brut_brot,false
blocked,31,661,1.0,0.873,0.0,u,715,low_ff,low_ff,1327.469,zug_zog,false
blocked,31,662,1.0,1.0,0.25,u,805,center,low_ff,1328.777,brut_brot,false
blocked,31,663,1.0,0.873,0.75,u,731,low_ff,low_ff,1330.009,tut_tot,false
blocked,31,664,1.0,0.873,0.0,u,853,low_ff,low_ff,1331.367,schuh_show,false
blocked,31,665,1.0,0.873,0.5,u,768,low_ff,low_ff,1332.637,brut_brot,false
blocked,31,666,1.0,0.873,0.75,o,1120,low_ff,low_ff,1334.262,zug_zog,true
blocked,31,667,1.0,0.873,0.0,u,976,low_ff,low_ff,1335.742,kur_chor,false
blocked,31,668,1.0,0.873,1.0,o,923,low_ff,low_ff,1337.166,huhn_hohn,true
blocked,31,669,1.0,0.873,1.0,o,1339,low_ff,low_ff,1339.008,fuhr_vor,true
blocked,31,670,1.0,0.873,0.0,u,1040,low_ff,low_ff,1340.553,brut_brot,false
blocked,31,671,1.0,0.873,0.5,u,965,low_ff,low_ff,1342.023,kur_chor,false
blocked,31,672,1.0,0.873,0.25,u,757,low_ff,low_ff,1343.286,bug_bog,false
blocked,31,673,1.0,0.873,0.5,u,1008,low_ff,low_ff,1344.797,ruhm_rom,false
blocked,31,674,1.0,0.873,1.0,o,1056,low_ff,low_ff,1346.358,fuhr_vor,true
blocked,31,675,1.0,1.0,0.5,o,1387,center,low_ff,1348.249,zug_zog,true
blocked,31,676,1.0,0.873,0.75,o,837,low_ff,low_ff,1349.591,huhn_hohn,true
blocked,31,677,1.0,0.873,0.5,u,885,low_ff,low_ff,1350.982,ruhm_rom,false
blocked,31,678,1.0,0.873,0.0,u,779,low_ff,low_ff,1352.267,tut_tot,false
blocked,31,679,1.0,1.0,0.25,u,1040,center,low_ff,1353.81,kur_chor,false
blocked,31,680,1.0,0.873,0.75,o,912,low_ff,low_ff,1355.226,ruhm_rom,true
blocked,31,681,1.0,0.873,1.0,o,1424,low_ff,low_ff,1357.155,kur_chor,true
blocked,31,682,1.0,0.873,1.0,u,1125,low_ff,low_ff,1358.791,ruhm_rom,false
blocked,31,683,1.0,0.873,0.75,o,923,low_ff,low_ff,1360.219,tut_tot,true
blocked,31,684,1.0,0.873,0.25,u,741,low_ff,low_ff,1361.464,zug_zog,false
blocked,31,685,1.0,0.873,1.0,o,896,low_ff,low_ff,1362.86,brut_brot,true
blocked,31,686,1.0,0.873,0.5,u,811,low_ff,low_ff,1364.175,bug_bog,false
blocked,31,687,1.0,0.873,0.0,u,1013,low_ff,low_ff,1365.693,huhn_hohn,false
blocked,31,688,1.0,0.873,0.25,u,1003,low_ff,low_ff,1367.198,fuhr_vor,false
blocked,31,689,1.0,0.873,0.0,u,715,low_ff,low_ff,1368.416,bug_bog,false
blocked,31,690,1.0,0.873,0.25,u,864,low_ff,low_ff,1369.784,huhn_hohn,false
blocked,31,691,1.0,0.873,1.0,o,816,low_ff,low_ff,1371.109,tut_tot,true
blocked,31,692,1.0,0.873,0.0,u,816,low_ff,low_ff,1372.431,bug_bog,false
blocked,31,693,1.0,0.873,1.0,o,875,low_ff,low_ff,1373.814,huhn_hohn,true
blocked,31,694,1.0,0.873,1.0,o,1712,low_ff,low_ff,1376.03,kur_chor,true
blocked,31,695,1.0,0.873,0.25,u,757,low_ff,low_ff,1377.288,schuh_show,false
blocked,31,696,1.0,0.873,0.0,u,1312,low_ff,low_ff,1379.102,zug_zog,false
blocked,31,697,1.0,0.873,0.0,u,720,low_ff,low_ff,1380.324,huhn_hohn,false
blocked,31,698,1.0,0.873,0.5,u,805,low_ff,low_ff,1381.638,tut_tot,false
blocked,31,699,1.0,0.873,0.25,u,1088,low_ff,low_ff,1383.231,kur_chor,false
blocked,31,700,1.0,0.873,1.0,o,773,low_ff,low_ff,1384.503,brut_brot,true
blocked,31,701,1.0,0.873,1.0,o,1184,low_ff,low_ff,1386.192,zug_zog,true
blocked,31,702,1.0,0.873,1.0,o,1317,low_ff,low_ff,1388.012,huhn_hohn,true
blocked,31,703,1.0,0.873,1.0,o,891,low_ff,low_ff,1389.407,schuh_show,true
blocked,31,704,1.0,0.873,1.0,o,837,low_ff,low_ff,1390.745,brut_brot,true
blocked,31,705,1.0,0.873,0.5,o,1360,low_ff,low_ff,1392.61,zug_zog,true
blocked,31,706,1.0,0.873,0.25,u,837,low_ff,low_ff,1393.95,tut_tot,false
blocked,31,707,1.0,0.873,0.0,u,875,low_ff,low_ff,1395.33,fuhr_vor,false
blocked,31,708,1.0,1.0,0.75,o,816,center,low_ff,1396.648,ruhm_rom,true
blocked,31,709,1.0,0.873,0.75,o,1371,low_ff,low_ff,1398.523,schuh_show,true
blocked,31,710,1.0,0.873,0.25,u,784,low_ff,low_ff,1399.812,kur_chor,false
blocked,31,711,1.0,0.873,0.5,u,2091,low_ff,low_ff,1402.41,tut_tot,false
blocked,31,712,1.0,0.873,0.25,o,2619,low_ff,low_ff,1405.533,zug_zog,true
blocked,31,713,1.0,0.873,0.0,u,800,low_ff,low_ff,1406.834,bug_bog,false
blocked,31,714,1.0,1.0,0.5,o,715,center,low_ff,1408.051,brut_brot,true
blocked,31,715,1.0,0.873,0.5,u,1440,low_ff,low_ff,1409.993,tut_tot,false
blocked,31,716,1.0,0.873,0.5,o,768,low_ff,low_ff,1411.27,schuh_show,true
blocked,31,717,1.0,1.0,0.5,u,1109,center,low_ff,1412.884,kur_chor,false
blocked,31,718,1.0,0.873,0.25,u,1717,low_ff,low_ff,1415.104,fuhr_vor,false
blocked,31,719,1.0,0.873,0.75,o,869,low_ff,low_ff,1416.482,bug_bog,true
blocked,31,720,1.0,0.873,0.0,u,1051,low_ff,low_ff,1418.036,ruhm_rom,false
blocked,31,721,1.0,0.873,0.75,o,805,low_ff,low_ff,1419.351,huhn_hohn,true
blocked,31,722,1.0,0.873,0.5,u,1525,low_ff,low_ff,1421.379,brut_brot,false
blocked,31,723,1.0,1.0,0.75,o,1205,center,low_ff,1423.086,fuhr_vor,true
blocked,31,724,1.0,0.873,0.0,o,1163,low_ff,low_ff,1424.752,schuh_show,true
blocked,31,725,1.0,0.873,0.25,u,1013,low_ff,low_ff,1426.27,brut_brot,false
blocked,31,726,1.0,0.873,0.25,u,805,low_ff,low_ff,1442.59,kur_chor,false
blocked,31,727,1.0,1.0,0.75,o,1253,center,low_ff,1444.347,tut_tot,true
blocked,31,728,1.0,0.873,0.25,u,784,low_ff,low_ff,1445.639,bug_bog,false
blocked,31,729,1.0,0.873,0.25,u,731,low_ff,low_ff,1446.874,kur_chor,false
blocked,31,730,1.0,0.873,0.25,u,965,low_ff,low_ff,1448.344,brut_brot,false
blocked,31,731,1.0,1.0,0.25,u,779,center,low_ff,1449.625,tut_tot,false
blocked,31,732,1.0,0.873,0.75,u,709,low_ff,low_ff,1450.836,bug_bog,false
blocked,31,733,1.0,0.873,0.25,u,1744,low_ff,low_ff,1453.084,ruhm_rom,false
blocked,31,734,1.0,0.873,1.0,o,901,low_ff,low_ff,1454.485,tut_tot,true
blocked,31,735,1.0,1.0,0.75,o,997,center,low_ff,1455.985,huhn_hohn,true
blocked,31,736,1.0,0.873,0.5,u,1045,low_ff,low_ff,1457.537,ruhm_rom,false
blocked,31,737,1.0,0.873,0.75,o,683,low_ff,low_ff,1458.726,brut_brot,true
blocked,31,738,1.0,0.873,0.25,u,1216,low_ff,low_ff,1460.448,schuh_show,false
blocked,31,739,1.0,0.873,0.5,u,891,low_ff,low_ff,1461.846,ruhm_rom,false
blocked,31,740,1.0,0.873,0.5,u,2069,low_ff,low_ff,1464.42,zug_zog,false
blocked,31,741,1.0,0.873,0.5,u,981,low_ff,low_ff,1465.906,kur_chor,false
blocked,31,742,1.0,0.873,0.25,u,672,low_ff,low_ff,1467.082,ruhm_rom,false
blocked,31,743,1.0,0.873,0.5,o,1435,low_ff,low_ff,1469.02,schuh_show,true
blocked,31,744,1.0,1.0,0.5,u,1120,center,low_ff,1470.641,fuhr_vor,false
blocked,31,745,1.0,0.873,0.0,u,1456,low_ff,low_ff,1472.602,schuh_show,false
blocked,31,746,1.0,0.873,0.75,o,960,low_ff,low_ff,1474.071,zug_zog,true
blocked,31,747,1.0,0.873,0.25,u,891,low_ff,low_ff,1475.46,tut_tot,false
blocked,31,748,1.0,0.873,0.25,o,843,low_ff,low_ff,1476.806,schuh_show,true
blocked,31,749,1.0,0.873,1.0,o,736,low_ff,low_ff,1478.048,bug_bog,true
blocked,31,750,1.0,0.873,1.0,o,1227,low_ff,low_ff,1479.781,huhn_hohn,true
blocked,31,751,1.0,0.873,0.75,o,1173,low_ff,low_ff,1481.456,fuhr_vor,true
blocked,31,752,1.0,0.873,0.0,u,928,low_ff,low_ff,1482.892,brut_brot,false
blocked,31,753,1.0,0.873,0.5,o,827,low_ff,low_ff,1484.226,zug_zog,true
blocked,31,754,1.0,1.0,0.5,o,1157,center,low_ff,1485.889,ruhm_rom,true
blocked,31,755,1.0,0.873,1.0,o,859,low_ff,low_ff,1487.254,schuh_show,true
blocked,31,756,1.0,0.873,0.5,u,1536,low_ff,low_ff,1489.291,fuhr_vor,false
blocked,31,757,1.0,0.873,0.75,o,1040,low_ff,low_ff,1490.835,zug_zog,true
blocked,31,758,1.0,0.873,1.0,o,736,low_ff,low_ff,1492.074,bug_bog,true
blocked,31,759,1.0,0.873,0.0,u,1957,low_ff,low_ff,1494.534,tut_tot,false
blocked,31,760,1.0,0.873,0.0,u,1083,low_ff,low_ff,1496.131,ruhm_rom,false
blocked,31,761,1.0,0.873,0.75,o,1109,low_ff,low_ff,1497.739,tut_tot,true
blocked,31,762,1.0,0.873,1.0,o,821,low_ff,low_ff,1499.062,bug_bog,true
blocked,31,763,1.0,0.873,0.5,u,896,low_ff,low_ff,1500.459,brut_brot,false
blocked,31,764,1.0,0.873,0.25,o,1003,low_ff,low_ff,1501.963,schuh_show,true
blocked,31,765,1.0,0.873,1.0,o,1536,low_ff,low_ff,1504.0,fuhr_vor,true
blocked,31,766,1.0,0.873,0.25,u,923,low_ff,low_ff,1505.425,zug_zog,false
blocked,31,767,1.0,0.873,1.0,o,752,low_ff,low_ff,1506.683,schuh_show,true
blocked,31,768,1.0,0.873,0.5,o,827,low_ff,low_ff,1508.016,huhn_hohn,true
blocked,31,769,1.0,0.873,0.75,o,1307,low_ff,low_ff,1509.825,schuh_show,true
blocked,31,770,1.0,1.0,0.5,o,789,center,low_ff,1511.122,bug_bog,true
blocked,31,771,1.0,0.873,0.5,o,1344,low_ff,low_ff,1512.972,tut_tot,true
blocked,31,772,1.0,0.873,0.75,o,1019,low_ff,low_ff,1514.496,ruhm_rom,true
blocked,31,773,1.0,1.0,0.75,o,1061,center,low_ff,1516.06,brut_brot,true
blocked,31,774,1.0,0.873,0.5,u,1163,low_ff,low_ff,1517.724,fuhr_vor,false
blocked,31,775,1.0,0.873,1.0,o,987,low_ff,low_ff,1519.212,zug_zog,true
blocked,31,776,1.0,0.873,0.0,u,944,low_ff,low_ff,1520.661,tut_tot,false
blocked,31,777,1.0,0.873,0.75,u,1168,low_ff,low_ff,1522.334,fuhr_vor,false
blocked,31,778,1.0,0.873,1.0,o,768,low_ff,low_ff,1523.608,tut_tot,true
blocked,31,779,1.0,0.873,0.0,u,1051,low_ff,low_ff,1525.161,kur_chor,false
blocked,31,780,1.0,0.873,0.5,u,2187,low_ff,low_ff,1527.854,huhn_hohn,false
blocked,31,781,1.0,0.873,0.75,o,1675,low_ff,low_ff,1530.033,tut_tot,true
blocked,31,782,1.0,0.873,0.25,u,1653,low_ff,low_ff,1532.191,ruhm_rom,false
blocked,31,783,1.0,1.0,0.75,o,912,center,low_ff,1533.609,schuh_show,true
blocked,31,784,1.0,0.873,0.0,u,864,low_ff,low_ff,1534.98,brut_brot,false
blocked,31,785,1.0,0.873,0.75,o,773,low_ff,low_ff,1536.262,bug_bog,true
blocked,31,786,1.0,1.0,0.5,o,779,center,low_ff,1537.547,huhn_hohn,true
blocked,31,787,1.0,0.873,0.75,o,1648,low_ff,low_ff,1539.699,kur_chor,true
blocked,31,788,1.0,0.873,0.75,o,981,low_ff,low_ff,1541.187,brut_brot,true
blocked,31,789,1.0,0.873,0.5,u,1109,low_ff,low_ff,1542.797,fuhr_vor,false
blocked,31,790,1.0,0.873,0.0,u,1328,low_ff,low_ff,1544.626,zug_zog,false
blocked,31,791,1.0,0.873,1.0,o,645,low_ff,low_ff,1545.773,bug_bog,true
blocked,31,792,1.0,0.873,0.5,o,736,low_ff,low_ff,1547.016,schuh_show,true
blocked,31,793,1.0,0.873,0.25,u,859,low_ff,low_ff,1548.381,ruhm_rom,false
blocked,31,794,1.0,0.873,0.25,u,885,low_ff,low_ff,1549.774,tut_tot,false
blocked,31,795,1.0,0.873,0.5,u,1360,low_ff,low_ff,1551.64,zug_zog,false
blocked,31,796,1.0,0.873,0.5,u,1632,low_ff,low_ff,1553.78,bug_bog,false
blocked,31,797,1.0,0.873,0.25,u,1024,low_ff,low_ff,1555.308,huhn_hohn,false
blocked,31,798,1.0,0.873,0.0,u,731,low_ff,low_ff,1556.544,kur_chor,false
blocked,31,799,1.0,0.873,0.75,u,805,low_ff,low_ff,1557.854,fuhr_vor,false
blocked,31,800,1.0,0.873,0.25,u,939,low_ff,low_ff,1559.297,zug_zog,false
blocked,31,801,1.0,0.873,0.75,o,896,low_ff,low_ff,1560.699,brut_brot,true
blocked,31,802,1.0,0.873,0.75,o,987,low_ff,low_ff,1562.188,kur_chor,true
blocked,31,803,1.0,0.873,0.75,o,939,low_ff,low_ff,1563.629,brut_brot,true
blocked,31,804,1.0,0.873,0.0,u,1312,low_ff,low_ff,1565.448,fuhr_vor,false
blocked,31,805,1.0,1.0,0.25,o,981,center,low_ff,1566.936,zug_zog,true
blocked,31,806,1.0,0.873,0.5,u,752,low_ff,low_ff,1568.189,fuhr_vor,false
blocked,31,807,1.0,0.873,1.0,o,944,low_ff,low_ff,1569.641,ruhm_rom,true
blocked,31,808,1.0,0.873,0.25,u,795,low_ff,low_ff,1570.935,huhn_hohn,false
blocked,31,809,1.0,1.0,0.25,o,805,center,low_ff,1572.242,schuh_show,true
blocked,31,810,1.0,0.873,1.0,o,1323,low_ff,low_ff,1574.066,fuhr_vor,true
blocked,31,811,1.0,0.873,0.75,o,1205,low_ff,low_ff,1575.782,zug_zog,true
blocked,31,812,1.0,0.873,0.75,o,848,low_ff,low_ff,1577.136,huhn_hohn,true
blocked,31,813,1.0,0.873,0.0,u,1403,low_ff,low_ff,1579.04,ruhm_rom,false
blocked,31,814,1.0,0.873,0.0,u,693,low_ff,low_ff,1580.239,brut_brot,false
blocked,31,815,1.0,1.0,0.75,o,912,center,low_ff,1581.659,zug_zog,true
blocked,31,816,1.0,0.873,0.5,o,2085,low_ff,low_ff,1584.248,kur_chor,true
blocked,31,817,1.0,0.873,0.0,u,1776,low_ff,low_ff,1586.525,bug_bog,false
blocked,31,818,1.0,0.873,0.5,o,1520,low_ff,low_ff,1588.551,huhn_hohn,true
blocked,31,819,1.0,0.873,0.75,o,912,low_ff,low_ff,1589.968,schuh_show,true
blocked,31,820,1.0,0.873,0.0,u,784,low_ff,low_ff,1591.252,kur_chor,false
blocked,31,821,1.0,0.873,0.0,u,827,low_ff,low_ff,1592.581,huhn_hohn,false
blocked,31,822,1.0,0.873,1.0,o,960,low_ff,low_ff,1594.048,zug_zog,true
blocked,31,823,1.0,1.0,0.25,u,811,center,low_ff,1595.358,huhn_hohn,false
blocked,31,824,1.0,0.873,0.5,u,912,low_ff,low_ff,1596.779,brut_brot,false
blocked,31,825,1.0,0.873,0.75,u,1099,low_ff,low_ff,1598.382,ruhm_rom,false
blocked,31,826,1.0,0.873,0.25,u,965,low_ff,low_ff,1599.85,tut_tot,false
blocked,31,827,1.0,0.873,0.75,o,907,low_ff,low_ff,1601.263,bug_bog,true
blocked,31,828,1.0,0.873,0.25,u,1003,low_ff,low_ff,1602.772,fuhr_vor,false
blocked,32,1,1.0,0.873,1.0,o,2821,low_ff,low_ff,209.147,brut_brot,true
blocked,32,2,1.0,0.873,0.0,u,1229,low_ff,low_ff,210.881,schuh_show,false
blocked,32,3,1.0,0.873,0.75,o,1480,low_ff,low_ff,212.874,kur_chor,true
blocked,32,4,1.0,0.873,0.0,o,1339,low_ff,low_ff,214.73,brut_brot,true
blocked,32,5,1.0,0.873,0.5,u,1051,low_ff,low_ff,216.294,huhn_hohn,false
blocked,32,6,1.0,0.873,0.75,o,1552,low_ff,low_ff,218.358,bug_bog,true
blocked,32,7,1.0,0.873,1.0,o,1531,low_ff,low_ff,220.391,fuhr_vor,true
blocked,32,8,1.0,0.873,0.25,o,1891,low_ff,low_ff,222.793,ruhm_rom,true
blocked,32,9,1.0,0.873,0.0,u,1059,low_ff,low_ff,224.363,zug_zog,false
blocked,32,10,1.0,1.0,0.75,o,989,center,low_ff,225.859,huhn_hohn,true
blocked,32,11,1.0,0.873,0.5,o,821,low_ff,low_ff,227.182,brut_brot,true
blocked,32,12,1.0,0.873,1.0,o,1421,low_ff,low_ff,229.114,fuhr_vor,true
blocked,32,13,1.0,0.873,0.25,u,771,low_ff,low_ff,230.389,schuh_show,false
blocked,32,14,1.0,0.873,1.0,o,749,low_ff,low_ff,231.646,huhn_hohn,true
blocked,32,15,1.0,0.873,0.75,u,1219,low_ff,low_ff,233.375,schuh_show,false
blocked,32,16,1.0,0.873,0.75,o,1261,low_ff,low_ff,235.142,fuhr_vor,true
blocked,32,17,1.0,0.873,0.0,u,909,low_ff,low_ff,236.563,zug_zog,false
blocked,32,18,1.0,0.873,0.5,u,2040,low_ff,low_ff,239.103,schuh_show,false
blocked,32,19,1.0,1.0,0.75,o,779,center,low_ff,240.404,kur_chor,true
blocked,32,20,1.0,0.873,1.0,o,891,low_ff,low_ff,241.791,bug_bog,true
blocked,32,21,1.0,0.873,0.25,u,739,low_ff,low_ff,243.043,brut_brot,false
blocked,32,22,1.0,0.873,0.5,o,1019,low_ff,low_ff,244.572,bug_bog,true
blocked,32,23,1.0,0.873,0.0,u,880,low_ff,low_ff,245.966,schuh_show,false
blocked,32,24,1.0,1.0,0.25,o,1120,center,low_ff,247.607,tut_tot,true
blocked,32,25,1.0,0.873,0.75,o,1000,low_ff,low_ff,249.109,huhn_hohn,true
blocked,32,26,1.0,0.873,0.0,u,920,low_ff,low_ff,250.528,brut_brot,false
blocked,32,27,1.0,0.873,0.5,u,1091,low_ff,low_ff,252.129,ruhm_rom,false
blocked,32,28,1.0,0.873,1.0,o,1072,low_ff,low_ff,253.707,zug_zog,true
blocked,32,29,1.0,1.0,0.75,o,1131,center,low_ff,255.356,ruhm_rom,true
blocked,32,30,1.0,0.873,0.5,o,859,low_ff,low_ff,256.733,kur_chor,true
blocked,32,31,1.0,0.873,0.0,u,712,low_ff,low_ff,257.958,ruhm_rom,false
blocked,32,32,1.0,0.873,0.75,o,851,low_ff,low_ff,259.315,fuhr_vor,true
blocked,32,33,1.0,0.873,0.25,u,1000,low_ff,low_ff,260.826,zug_zog,false
blocked,32,34,1.0,0.873,1.0,o,819,low_ff,low_ff,262.161,kur_chor,true
blocked,32,35,1.0,0.873,0.0,u,1309,low_ff,low_ff,263.987,tut_tot,false
blocked,32,36,1.0,0.873,1.0,o,909,low_ff,low_ff,265.412,fuhr_vor,true
blocked,32,37,1.0,0.873,0.75,o,840,low_ff,low_ff,266.76,huhn_hohn,true
blocked,32,38,1.0,0.873,1.0,o,699,low_ff,low_ff,267.972,tut_tot,true
blocked,32,39,1.0,0.873,0.25,u,931,low_ff,low_ff,269.41,brut_brot,false
blocked,32,40,1.0,0.873,0.25,u,1208,low_ff,low_ff,271.126,tut_tot,false
blocked,32,41,1.0,0.873,1.0,o,1019,low_ff,low_ff,272.655,ruhm_rom,true
blocked,32,42,1.0,0.873,1.0,o,1240,low_ff,low_ff,274.402,schuh_show,true
blocked,32,43,1.0,0.873,0.75,o,949,low_ff,low_ff,275.866,zug_zog,true
blocked,32,44,1.0,1.0,0.25,o,731,center,low_ff,277.106,bug_bog,true
blocked,32,45,1.0,0.873,0.0,u,1240,low_ff,low_ff,278.848,ruhm_rom,false
blocked,32,46,1.0,0.873,0.0,u,811,low_ff,low_ff,280.173,huhn_hohn,false
blocked,32,47,1.0,1.0,0.75,o,1160,center,low_ff,281.836,schuh_show,true
blocked,32,48,1.0,0.873,0.5,u,1760,low_ff,low_ff,284.103,ruhm_rom,false
blocked,32,49,1.0,0.873,0.25,o,1301,low_ff,low_ff,285.908,zug_zog,true
blocked,32,50,1.0,0.873,0.75,o,611,low_ff,low_ff,287.023,tut_tot,true
blocked,32,51,1.0,0.873,0.5,o,669,low_ff,low_ff,288.199,bug_bog,true
blocked,32,52,1.0,1.0,0.25,o,789,center,low_ff,289.5,kur_chor,true
blocked,32,53,1.0,0.873,0.25,u,971,low_ff,low_ff,290.978,brut_brot,false
blocked,32,54,1.0,1.0,0.25,o,861,center,low_ff,292.344,fuhr_vor,true
blocked,32,55,1.0,0.873,1.0,o,840,low_ff,low_ff,293.68,ruhm_rom,true
blocked,32,56,1.0,0.873,0.0,u,829,low_ff,low_ff,295.011,schuh_show,false
blocked,32,57,1.0,0.873,0.25,u,829,low_ff,low_ff,296.343,ruhm_rom,false
blocked,32,58,1.0,1.0,0.25,u,1192,center,low_ff,298.036,brut_brot,false
blocked,32,59,1.0,0.873,1.0,o,819,low_ff,low_ff,299.373,huhn_hohn,true
blocked,32,60,1.0,0.873,0.75,o,712,low_ff,low_ff,300.588,fuhr_vor,true
blocked,32,61,1.0,0.873,1.0,o,701,low_ff,low_ff,301.789,tut_tot,true
blocked,32,62,1.0,1.0,0.75,o,861,center,low_ff,303.149,zug_zog,true
blocked,32,63,1.0,0.873,0.0,u,760,low_ff,low_ff,304.421,bug_bog,false
blocked,32,64,1.0,0.873,1.0,o,909,low_ff,low_ff,305.841,fuhr_vor,true
blocked,32,65,1.0,0.873,0.0,u,1408,low_ff,low_ff,307.762,kur_chor,false
blocked,32,66,1.0,0.873,1.0,o,989,low_ff,low_ff,309.265,bug_bog,true
blocked,32,67,1.0,1.0,0.5,o,1360,center,low_ff,311.131,schuh_show,true
blocked,32,68,1.0,0.873,0.0,u,1059,low_ff,low_ff,312.692,brut_brot,false
blocked,32,69,1.0,0.873,0.0,u,1040,low_ff,low_ff,314.239,tut_tot,false
blocked,32,70,1.0,0.873,0.25,u,1320,low_ff,low_ff,316.06,fuhr_vor,false
blocked,32,71,1.0,0.873,0.0,u,901,low_ff,low_ff,317.463,huhn_hohn,false
blocked,32,72,1.0,1.0,0.75,o,680,center,low_ff,318.653,brut_brot,true
blocked,32,73,1.0,0.873,0.5,o,931,low_ff,low_ff,320.097,zug_zog,true
blocked,32,74,1.0,0.873,0.5,o,1141,low_ff,low_ff,321.746,fuhr_vor,true
blocked,32,75,1.0,0.873,0.5,o,981,low_ff,low_ff,323.236,bug_bog,true
blocked,32,76,1.0,0.873,0.0,u,979,low_ff,low_ff,324.722,fuhr_vor,false
blocked,32,77,1.0,0.873,0.75,u,1179,low_ff,low_ff,326.416,schuh_show,false
blocked,32,78,1.0,0.873,0.25,u,731,low_ff,low_ff,327.666,kur_chor,false
blocked,32,79,1.0,0.873,0.75,u,1069,low_ff,low_ff,329.246,huhn_hohn,false
blocked,32,80,1.0,0.873,0.25,u,829,low_ff,low_ff,330.579,tut_tot,false
blocked,32,81,1.0,0.873,0.0,u,771,low_ff,low_ff,331.853,zug_zog,false
blocked,32,82,1.0,0.873,0.75,u,1051,low_ff,low_ff,333.414,ruhm_rom,false
blocked,32,83,1.0,0.873,0.5,o,1528,low_ff,low_ff,335.443,brut_brot,true
blocked,32,84,1.0,0.873,0.0,u,989,low_ff,low_ff,336.942,ruhm_rom,false
blocked,32,85,1.0,1.0,0.75,o,1101,center,low_ff,338.538,fuhr_vor,true
blocked,32,86,1.0,0.873,0.75,o,720,low_ff,low_ff,339.76,kur_chor,true
blocked,32,87,1.0,0.873,0.75,o,819,low_ff,low_ff,341.08,zug_zog,true
blocked,32,88,1.0,0.873,0.25,u,499,low_ff,low_ff,342.083,huhn_hohn,false
blocked,32,89,1.0,0.873,0.5,o,869,low_ff,low_ff,343.465,brut_brot,true
blocked,32,90,1.0,1.0,0.25,u,821,center,low_ff,344.782,huhn_hohn,false
blocked,32,91,1.0,0.873,0.25,u,872,low_ff,low_ff,346.153,kur_chor,false
blocked,32,92,1.0,0.873,0.75,o,1109,low_ff,low_ff,347.762,tut_tot,true
blocked,32,93,1.0,0.873,0.25,o,1131,low_ff,low_ff,349.396,bug_bog,true
blocked,32,94,1.0,0.873,0.25,u,851,low_ff,low_ff,350.74,huhn_hohn,false
blocked,32,95,1.0,1.0,0.5,o,821,center,low_ff,352.065,fuhr_vor,true
blocked,32,96,1.0,0.873,0.25,u,909,low_ff,low_ff,353.493,tut_tot,false
blocked,32,97,1.0,0.873,1.0,o,872,low_ff,low_ff,354.868,zug_zog,true
blocked,32,98,1.0,0.873,1.0,o,669,low_ff,low_ff,356.046,kur_chor,true
blocked,32,99,1.0,0.873,0.0,u,768,low_ff,low_ff,357.326,bug_bog,false
blocked,32,100,1.0,0.873,0.75,u,869,low_ff,low_ff,358.705,ruhm_rom,false
blocked,32,101,1.0,0.873,0.0,u,811,low_ff,low_ff,360.026,kur_chor,false
blocked,32,102,1.0,0.873,0.5,u,731,low_ff,low_ff,361.274,tut_tot,false
blocked,32,103,1.0,0.873,0.75,o,1131,low_ff,low_ff,362.903,fuhr_vor,true
blocked,32,104,1.0,0.873,0.75,o,760,low_ff,low_ff,364.169,kur_chor,true
blocked,32,105,1.0,0.873,0.25,u,941,low_ff,low_ff,380.627,bug_bog,false
blocked,32,106,1.0,0.873,0.5,u,739,low_ff,low_ff,381.878,schuh_show,false
blocked,32,107,1.0,0.873,1.0,o,909,low_ff,low_ff,383.29,tut_tot,true
blocked,32,108,1.0,0.873,0.75,o,720,low_ff,low_ff,384.508,brut_brot,true
blocked,32,109,1.0,0.873,0.25,u,749,low_ff,low_ff,385.767,kur_chor,false
blocked,32,110,1.0,0.873,1.0,o,840,low_ff,low_ff,387.115,brut_brot,true
blocked,32,111,1.0,0.873,0.25,u,819,low_ff,low_ff,388.44,schuh_show,false
blocked,32,112,1.0,0.873,0.5,o,899,low_ff,low_ff,389.857,tut_tot,true
blocked,32,113,1.0,0.873,1.0,o,981,low_ff,low_ff,391.352,schuh_show,true
blocked,32,114,1.0,1.0,0.5,o,1011,center,low_ff,392.859,kur_chor,true
blocked,32,115,1.0,0.873,0.25,u,731,low_ff,low_ff,394.095,schuh_show,false
blocked,32,116,1.0,0.873,0.25,u,800,low_ff,low_ff,395.39,bug_bog,false
blocked,32,117,1.0,0.873,0.0,u,760,low_ff,low_ff,396.653,zug_zog,false
blocked,32,118,1.0,0.873,1.0,u,939,low_ff,low_ff,398.092,ruhm_rom,false
blocked,32,119,1.0,0.873,0.0,u,520,low_ff,low_ff,399.117,bug_bog,false
blocked,32,120,1.0,0.873,0.75,u,1549,low_ff,low_ff,401.174,tut_tot,false
blocked,32,121,1.0,0.873,0.75,u,1051,low_ff,low_ff,402.733,schuh_show,false
blocked,32,122,1.0,0.873,0.75,o,629,low_ff,low_ff,403.859,kur_chor,true
blocked,32,123,1.0,0.873,0.5,o,891,low_ff,low_ff,405.252,fuhr_vor,true
blocked,32,124,1.0,0.873,0.5,o,1120,low_ff,low_ff,406.872,tut_tot,true
blocked,32,125,1.0,0.873,0.25,u,771,low_ff,low_ff,408.156,ruhm_rom,false
blocked,32,126,1.0,0.873,0.75,u,709,low_ff,low_ff,409.369,huhn_hohn,false
blocked,32,127,1.0,0.873,0.5,u,859,low_ff,low_ff,410.729,ruhm_rom,false
blocked,32,128,1.0,0.873,0.75,o,848,low_ff,low_ff,412.081,brut_brot,true
blocked,32,129,1.0,1.0,0.5,o,728,center,low_ff,413.328,bug_bog,true
blocked,32,130,1.0,0.873,0.75,o,960,low_ff,low_ff,414.806,brut_brot,true
blocked,32,131,1.0,1.0,0.5,o,789,center,low_ff,416.105,tut_tot,true
blocked,32,132,1.0,0.873,0.25,u,1000,low_ff,low_ff,417.617,zug_zog,false
blocked,32,133,1.0,0.873,1.0,u,1011,low_ff,low_ff,419.134,schuh_show,false
blocked,32,134,1.0,0.873,0.25,u,1160,low_ff,low_ff,420.804,ruhm_rom,false
blocked,32,135,1.0,0.873,0.0,u,811,low_ff,low_ff,422.13,bug_bog,false
blocked,32,136,1.0,0.873,1.0,o,720,low_ff,low_ff,423.36,kur_chor,true
blocked,32,137,1.0,0.873,0.75,u,1179,low_ff,low_ff,425.038,tut_tot,false
blocked,32,138,1.0,0.873,1.0,o,789,low_ff,low_ff,426.328,bug_bog,true
blocked,32,139,1.0,0.873,0.25,u,869,low_ff,low_ff,427.701,zug_zog,false
blocked,32,140,1.0,0.873,0.5,u,701,low_ff,low_ff,428.914,huhn_hohn,false
blocked,32,141,1.0,0.873,0.5,u,760,low_ff,low_ff,430.178,brut_brot,false
blocked,32,142,1.0,0.873,1.0,u,741,low_ff,low_ff,431.419,ruhm_rom,false
blocked,32,143,1.0,0.873,1.0,u,651,low_ff,low_ff,432.573,zug_zog,false
blocked,32,144,1.0,1.0,0.25,o,901,center,low_ff,433.985,schuh_show,true
blocked,32,145,1.0,0.873,0.5,o,800,low_ff,low_ff,435.286,kur_chor,true
blocked,32,146,1.0,0.873,0.75,o,699,low_ff,low_ff,436.495,brut_brot,true
blocked,32,147,1.0,1.0,0.25,u,941,center,low_ff,437.939,ruhm_rom,false
blocked,32,148,1.0,0.873,0.0,u,829,low_ff,low_ff,439.287,schuh_show,false
blocked,32,149,1.0,0.873,1.0,o,661,low_ff,low_ff,440.462,bug_bog,true
blocked,32,150,1.0,0.873,0.5,u,549,low_ff,low_ff,441.526,zug_zog,false
blocked,32,151,1.0,0.873,1.0,o,659,low_ff,low_ff,442.693,kur_chor,true
blocked,32,152,1.0,0.873,0.0,u,768,low_ff,low_ff,443.959,brut_brot,false
blocked,32,153,1.0,0.873,1.0,u,789,low_ff,low_ff,445.256,huhn_hohn,false
blocked,32,154,1.0,0.873,0.5,u,1400,low_ff,low_ff,447.159,fuhr_vor,false
blocked,32,155,1.0,0.873,0.5,u,891,low_ff,low_ff,448.553,zug_zog,false
blocked,32,156,1.0,0.873,0.5,u,779,low_ff,low_ff,449.84,schuh_show,false
blocked,32,157,1.0,0.873,0.75,o,739,low_ff,low_ff,451.079,bug_bog,true
blocked,32,158,1.0,0.873,0.5,o,619,low_ff,low_ff,452.204,kur_chor,true
blocked,32,159,1.0,0.873,0.0,u,1360,low_ff,low_ff,454.071,huhn_hohn,false
blocked,32,160,1.0,0.873,0.25,u,789,low_ff,low_ff,455.362,brut_brot,false
blocked,32,161,1.0,0.873,1.0,o,840,low_ff,low_ff,456.703,zug_zog,true
blocked,32,162,1.0,0.873,0.5,o,600,low_ff,low_ff,457.809,kur_chor,true
blocked,32,163,1.0,1.0,0.75,o,819,center,low_ff,459.134,tut_tot,true
blocked,32,164,1.0,0.873,0.25,u,749,low_ff,low_ff,460.4,huhn_hohn,false
blocked,32,165,1.0,0.873,0.5,o,939,low_ff,low_ff,461.842,bug_bog,true
blocked,32,166,1.0,0.873,0.75,o,739,low_ff,low_ff,463.078,zug_zog,true
blocked,32,167,1.0,0.873,0.25,u,579,low_ff,low_ff,464.163,huhn_hohn,false
blocked,32,168,1.0,0.873,0.0,u,1008,low_ff,low_ff,465.684,fuhr_vor,false
blocked,32,169,1.0,0.873,0.5,u,2000,low_ff,low_ff,468.194,ruhm_rom,false
blocked,32,170,1.0,1.0,0.5,u,1019,center,low_ff,469.729,huhn_hohn,false
blocked,32,171,1.0,0.873,0.25,u,1000,low_ff,low_ff,471.238,kur_chor,false
blocked,32,172,1.0,0.873,0.75,u,971,low_ff,low_ff,472.708,ruhm_rom,false
blocked,32,173,1.0,0.873,0.75,o,709,low_ff,low_ff,473.924,zug_zog,true
blocked,32,174,1.0,0.873,0.0,u,789,low_ff,low_ff,475.223,ruhm_rom,false
blocked,32,175,1.0,0.873,0.25,u,971,low_ff,low_ff,476.705,fuhr_vor,false
blocked,32,176,1.0,0.873,1.0,o,931,low_ff,low_ff,478.131,brut_brot,true
blocked,32,177,1.0,0.873,0.0,u,811,low_ff,low_ff,479.454,kur_chor,false
blocked,32,178,1.0,0.873,0.5,u,651,low_ff,low_ff,480.61,huhn_hohn,false
blocked,32,179,1.0,0.873,1.0,o,1120,low_ff,low_ff,482.243,schuh_show,true
blocked,32,180,1.0,0.873,0.0,u,880,low_ff,low_ff,483.621,tut_tot,false
blocked,32,181,1.0,1.0,0.75,o,680,center,low_ff,484.806,bug_bog,true
blocked,32,182,1.0,0.873,0.75,u,949,low_ff,low_ff,486.26,schuh_show,false
blocked,32,183,1.0,0.873,0.5,u,931,low_ff,low_ff,487.698,fuhr_vor,false
blocked,32,184,1.0,0.873,0.5,u,891,low_ff,low_ff,489.097,zug_zog,false
blocked,32,185,1.0,0.873,0.5,u,720,low_ff,low_ff,490.333,tut_tot,false
blocked,32,186,1.0,0.873,0.25,u,760,low_ff,low_ff,491.602,bug_bog,false
blocked,32,187,1.0,0.873,0.0,u,728,low_ff,low_ff,492.845,kur_chor,false
blocked,32,188,1.0,0.873,0.25,u,680,low_ff,low_ff,494.03,fuhr_vor,false
blocked,32,189,1.0,0.873,0.75,o,621,low_ff,low_ff,495.152,bug_bog,true
blocked,32,190,1.0,0.873,0.0,u,731,low_ff,low_ff,496.398,tut_tot,false
blocked,32,191,1.0,0.873,0.0,u,739,low_ff,low_ff,497.646,huhn_hohn,false
blocked,32,192,1.0,1.0,0.25,o,931,center,low_ff,499.092,zug_zog,true
blocked,32,193,1.0,0.873,1.0,o,901,low_ff,low_ff,500.504,tut_tot,true
blocked,32,194,1.0,0.873,0.25,u,971,low_ff,low_ff,501.98,schuh_show,false
blocked,32,195,1.0,0.873,0.75,u,941,low_ff,low_ff,503.434,ruhm_rom,false
blocked,32,196,1.0,1.0,0.5,o,891,center,low_ff,504.834,zug_zog,true
blocked,32,197,1.0,0.873,1.0,o,709,low_ff,low_ff,506.052,brut_brot,true
blocked,32,198,1.0,0.873,0.25,u,731,low_ff,low_ff,507.291,fuhr_vor,false
blocked,32,199,1.0,0.873,0.5,u,960,low_ff,low_ff,508.758,schuh_show,false
blocked,32,200,1.0,0.873,0.75,o,619,low_ff,low_ff,509.889,bug_bog,true
blocked,32,201,1.0,1.0,0.5,o,669,center,low_ff,511.059,brut_brot,true
blocked,32,202,1.0,0.873,0.25,u,901,low_ff,low_ff,512.474,tut_tot,false
blocked,32,203,1.0,0.873,0.0,u,909,low_ff,low_ff,513.893,fuhr_vor,false
blocked,32,204,1.0,0.873,0.5,u,589,low_ff,low_ff,514.982,huhn_hohn,false
blocked,32,205,1.0,1.0,0.5,u,920,center,low_ff,516.411,ruhm_rom,false
blocked,32,206,1.0,0.873,1.0,o,1061,low_ff,low_ff,517.985,huhn_hohn,true
blocked,32,207,1.0,0.873,0.0,u,779,low_ff,low_ff,519.283,fuhr_vor,false
blocked,32,208,1.24,1.0,0.25,u,712,high_f0,high_f0,535.511,tut_tot,false
blocked,32,209,1.24,1.0,0.25,u,859,high_f0,high_f0,536.885,ruhm_rom,false
blocked,32,210,1.24,1.0,0.75,o,880,high_f0,high_f0,538.272,bug_bog,true
blocked,32,211,1.0,1.0,0.75,o,960,center,high_f0,539.737,schuh_show,true
blocked,32,212,1.24,1.0,0.0,u,760,high_f0,high_f0,540.998,ruhm_rom,false
blocked,32,213,1.24,1.0,0.0,u,720,high_f0,high_f0,542.218,tut_tot,false
blocked,32,214,1.24,1.0,0.0,u,680,high_f0,high_f0,543.412,kur_chor,false
blocked,32,215,1.0,1.0,0.5,o,859,center,high_f0,544.778,fuhr_vor,true
blocked,32,216,1.24,1.0,0.25,u,741,high_f0,high_f0,546.019,brut_brot,false
blocked,32,217,1.24,1.0,0.0,u,861,high_f0,high_f0,547.381,ruhm_rom,false
blocked,32,218,1.24,1.0,0.5,u,621,high_f0,high_f0,548.515,bug_bog,false
blocked,32,219,1.24,1.0,1.0,o,720,high_f0,high_f0,549.747,zug_zog,true
blocked,32,220,1.0,1.0,0.25,o,672,center,high_f0,550.912,brut_brot,true
blocked,32,221,1.24,1.0,0.0,u,571,high_f0,high_f0,551.992,tut_tot,false
blocked,32,222,1.24,1.0,0.0,u,701,high_f0,high_f0,553.19,brut_brot,false
blocked,32,223,1.24,1.0,0.0,u,619,high_f0,high_f0,554.322,bug_bog,false
blocked,32,224,1.0,1.0,0.5,o,680,center,high_f0,555.502,huhn_hohn,true
blocked,32,225,1.24,1.0,0.75,u,661,high_f0,high_f0,556.66,fuhr_vor,false
blocked,32,226,1.24,1.0,0.0,u,869,high_f0,high_f0,558.046,schuh_show,false
blocked,32,227,1.24,1.0,0.25,u,669,high_f0,high_f0,559.214,brut_brot,false
blocked,32,228,1.0,1.0,0.5,o,472,center,high_f0,560.193,bug_bog,true
blocked,32,229,1.24,1.0,0.0,u,829,high_f0,high_f0,561.54,schuh_show,false
blocked,32,230,1.24,1.0,0.75,u,701,high_f0,high_f0,562.747,fuhr_vor,false
blocked,32,231,1.24,1.0,0.0,u,491,high_f0,high_f0,563.743,bug_bog,false
blocked,32,232,1.24,1.0,0.75,u,480,high_f0,high_f0,564.736,zug_zog,false
blocked,32,233,1.24,1.0,0.75,u,651,high_f0,high_f0,565.896,bug_bog,false
blocked,32,234,1.24,1.0,0.5,u,808,high_f0,high_f0,567.201,kur_chor,false
blocked,32,235,1.24,1.0,0.0,u,709,high_f0,high_f0,568.417,tut_tot,false
blocked,32,236,1.24,1.0,0.75,u,821,high_f0,high_f0,569.742,ruhm_rom,false
blocked,32,237,1.0,1.0,0.5,o,669,center,high_f0,570.922,tut_tot,true
blocked,32,238,1.24,1.0,0.5,u,680,high_f0,high_f0,572.103,ruhm_rom,false
blocked,32,239,1.24,1.0,0.25,u,640,high_f0,high_f0,573.257,huhn_hohn,false
blocked,32,240,1.24,1.0,1.0,u,1440,high_f0,high_f0,575.208,schuh_show,false
blocked,32,241,1.24,1.0,0.25,u,749,high_f0,high_f0,576.462,kur_chor,false
blocked,32,242,1.24,1.0,0.5,u,749,high_f0,high_f0,577.719,schuh_show,false
blocked,32,243,1.24,1.0,0.0,u,720,high_f0,high_f0,578.939,fuhr_vor,false
blocked,32,244,1.24,1.0,0.0,u,451,high_f0,high_f0,579.902,bug_bog,false
blocked,32,245,1.0,1.0,0.5,o,621,center,high_f0,581.028,zug_zog,true
blocked,32,246,1.24,1.0,0.5,u,629,high_f0,high_f0,582.16,brut_brot,false
blocked,32,247,1.24,1.0,1.0,u,720,high_f0,high_f0,583.386,huhn_hohn,false
blocked,32,248,1.24,1.0,1.0,u,840,high_f0,high_f0,584.736,fuhr_vor,false
blocked,32,249,1.24,1.0,0.0,u,672,high_f0,high_f0,585.91,ruhm_rom,false
blocked,32,250,1.24,1.0,0.25,u,731,high_f0,high_f0,587.147,fuhr_vor,false
blocked,32,251,1.24,1.0,0.75,u,651,high_f0,high_f0,588.314,huhn_hohn,false
blocked,32,252,1.24,1.0,0.5,u,691,high_f0,high_f0,589.509,zug_zog,false
blocked,32,253,1.24,1.0,0.25,u,429,high_f0,high_f0,590.445,kur_chor,false
blocked,32,254,1.24,1.0,0.25,u,520,high_f0,high_f0,591.468,bug_bog,false
blocked,32,255,1.24,1.0,1.0,u,709,high_f0,high_f0,592.69,fuhr_vor,false
blocked,32,256,1.24,1.0,0.5,u,629,high_f0,high_f0,593.823,brut_brot,false
blocked,32,257,1.24,1.0,1.0,u,872,high_f0,high_f0,595.192,ruhm_rom,false
blocked,32,258,1.24,1.0,0.5,u,931,high_f0,high_f0,596.632,fuhr_vor,false
blocked,32,259,1.24,1.0,0.25,u,669,high_f0,high_f0,597.813,schuh_show,false
blocked,32,260,1.24,1.0,0.5,u,739,high_f0,high_f0,599.049,fuhr_vor,false
blocked,32,261,1.24,1.0,0.25,u,640,high_f0,high_f0,600.197,zug_zog,false
blocked,32,262,1.24,1.0,1.0,u,1120,high_f0,high_f0,601.819,schuh_show,false
blocked,32,263,1.24,1.0,0.25,u,752,high_f0,high_f0,603.07,tut_tot,false
blocked,32,264,1.0,1.0,0.25,o,699,center,high_f0,604.279,zug_zog,true
blocked,32,265,1.24,1.0,0.5,u,629,high_f0,high_f0,605.408,tut_tot,false
blocked,32,266,1.24,1.0,1.0,u,688,high_f0,high_f0,606.604,ruhm_rom,false
blocked,32,267,1.24,1.0,0.75,o,920,high_f0,high_f0,608.023,kur_chor,true
blocked,32,268,1.24,1.0,1.0,o,971,high_f0,high_f0,609.503,brut_brot,true
blocked,32,269,1.24,1.0,0.75,u,789,high_f0,high_f0,610.804,huhn_hohn,false
blocked,32,270,1.24,1.0,0.25,u,808,high_f0,high_f0,612.121,tut_tot,false
blocked,32,271,1.24,1.0,1.0,o,869,high_f0,high_f0,613.5,zug_zog,true
blocked,32,272,1.24,1.0,0.25,u,781,high_f0,high_f0,614.791,fuhr_vor,false
blocked,32,273,1.24,1.0,0.75,o,971,high_f0,high_f0,616.259,kur_chor,true
blocked,32,274,1.0,1.0,0.75,o,811,center,high_f0,617.581,huhn_hohn,true
blocked,32,275,1.24,1.0,0.25,u,760,high_f0,high_f0,618.849,schuh_show,false
blocked,32,276,1.0,1.0,0.75,o,520,center,high_f0,619.883,bug_bog,true
blocked,32,277,1.24,1.0,0.25,u,619,high_f0,high_f0,620.998,schuh_show,false
blocked,32,278,1.24,1.0,0.25,u,549,high_f0,high_f0,622.048,ruhm_rom,false
blocked,32,279,1.24,1.0,1.0,o,800,high_f0,high_f0,623.354,brut_brot,true
blocked,32,280,1.24,1.0,0.75,u,651,high_f0,high_f0,624.513,schuh_show,false
blocked,32,281,1.24,1.0,1.0,o,888,high_f0,high_f0,625.92,zug_zog,true
blocked,32,282,1.24,1.0,0.5,u,659,high_f0,high_f0,627.091,bug_bog,false
blocked,32,283,1.24,1.0,0.25,u,709,high_f0,high_f0,628.306,brut_brot,false
blocked,32,284,1.24,1.0,0.25,u,699,high_f0,high_f0,629.521,fuhr_vor,false
blocked,32,285,1.24,1.0,0.75,u,1189,high_f0,high_f0,631.223,tut_tot,false
blocked,32,286,1.24,1.0,0.5,u,749,high_f0,high_f0,632.481,huhn_hohn,false
blocked,32,287,1.24,1.0,1.0,o,629,high_f0,high_f0,633.626,bug_bog,true
blocked,32,288,1.24,1.0,1.0,o,749,high_f0,high_f0,634.891,tut_tot,true
blocked,32,289,1.24,1.0,0.5,u,840,high_f0,high_f0,636.244,fuhr_vor,false
blocked,32,290,1.24,1.0,1.0,o,1251,high_f0,high_f0,638.012,huhn_hohn,true
blocked,32,291,1.24,1.0,0.75,o,760,high_f0,high_f0,639.277,zug_zog,true
blocked,32,292,1.24,1.0,0.5,u,680,high_f0,high_f0,640.462,schuh_show,false
blocked,32,293,1.24,1.0,0.75,u,720,high_f0,high_f0,641.686,tut_tot,false
blocked,32,294,1.24,1.0,0.75,u,709,high_f0,high_f0,642.905,schuh_show,false
blocked,32,295,1.24,1.0,1.0,u,901,high_f0,high_f0,644.315,ruhm_rom,false
blocked,32,296,1.24,1.0,0.0,u,720,high_f0,high_f0,645.531,brut_brot,false
blocked,32,297,1.24,1.0,0.25,u,760,high_f0,high_f0,646.808,huhn_hohn,false
blocked,32,298,1.24,1.0,0.5,u,1339,high_f0,high_f0,648.65,brut_brot,false
blocked,32,299,1.24,1.0,0.5,u,829,high_f0,high_f0,649.984,fuhr_vor,false
blocked,32,300,1.24,1.0,1.0,o,760,high_f0,high_f0,651.244,kur_chor,true
blocked,32,301,1.24,1.0,0.5,u,869,high_f0,high_f0,652.621,tut_tot,false
blocked,32,302,1.0,1.0,0.5,o,629,center,high_f0,653.764,brut_brot,true
blocked,32,303,1.24,1.0,1.0,o,752,high_f0,high_f0,655.033,bug_bog,true
blocked,32,304,1.24,1.0,0.5,u,1179,high_f0,high_f0,656.721,kur_chor,false
blocked,32,305,1.24,1.0,0.0,u,880,high_f0,high_f0,658.11,fuhr_vor,false
blocked,32,306,1.24,1.0,0.75,o,829,high_f0,high_f0,659.442,brut_brot,true
blocked,32,307,1.24,1.0,0.0,u,808,high_f0,high_f0,660.765,schuh_show,false
blocked,32,308,1.24,1.0,1.0,o,720,high_f0,high_f0,661.995,bug_bog,true
blocked,32,309,1.24,1.0,0.25,u,1149,high_f0,high_f0,663.656,huhn_hohn,false
blocked,32,310,1.0,1.0,0.75,o,592,center,high_f0,664.756,brut_brot,true
blocked,32,311,1.24,1.0,0.0,u,720,high_f0,high_f0,665.993,zug_zog,false
blocked,32,312,1.24,1.0,0.5,u,1341,high_f0,high_f0,682.866,kur_chor,false
blocked,32,313,1.24,1.0,0.75,o,899,high_f0,high_f0,684.288,bug_bog,true
blocked,32,314,1.24,1.0,0.0,u,731,high_f0,high_f0,685.529,ruhm_rom,false
blocked,32,315,1.24,1.0,1.0,o,851,high_f0,high_f0,686.891,brut_brot,true
blocked,32,316,1.0,1.0,0.25,o,829,center,high_f0,688.226,huhn_hohn,true
blocked,32,317,1.24,1.0,0.25,u,731,high_f0,high_f0,689.476,ruhm_rom,false
blocked,32,318,1.24,1.0,0.0,u,739,high_f0,high_f0,690.72,schuh_show,false
blocked,32,319,1.24,1.0,0.5,u,728,high_f0,high_f0,691.962,tut_tot,false
blocked,32,320,1.24,1.0,1.0,o,739,high_f0,high_f0,693.197,kur_chor,true
blocked,32,321,1.24,1.0,1.0,o,731,high_f0,high_f0,694.428,fuhr_vor,true
blocked,32,322,1.24,1.0,0.75,u,909,high_f0,high_f0,695.853,ruhm_rom,false
blocked,32,323,1.24,1.0,0.75,u,691,high_f0,high_f0,697.055,huhn_hohn,false
blocked,32,324,1.24,1.0,0.25,u,821,high_f0,high_f0,698.383,ruhm_rom,false
blocked,32,325,1.24,1.0,1.0,o,621,high_f0,high_f0,699.51,tut_tot,true
blocked,32,326,1.24,1.0,0.75,o,1301,high_f0,high_f0,701.309,schuh_show,true
blocked,32,327,1.24,1.0,1.0,o,720,high_f0,high_f0,702.544,huhn_hohn,true
blocked,32,328,1.24,1.0,0.0,u,731,high_f0,high_f0,703.786,fuhr_vor,false
blocked,32,329,1.24,1.0,1.0,o,800,high_f0,high_f0,705.104,tut_tot,true
blocked,32,330,1.24,1.0,0.75,o,680,high_f0,high_f0,706.292,brut_brot,true
blocked,32,331,1.24,1.0,0.25,u,731,high_f0,high_f0,707.533,bug_bog,false
blocked,32,332,1.0,1.0,0.75,o,752,center,high_f0,708.788,fuhr_vor,true
blocked,32,333,1.24,1.0,0.5,u,611,high_f0,high_f0,709.898,huhn_hohn,false
blocked,32,334,1.0,1.0,0.25,o,560,center,high_f0,710.967,tut_tot,true
blocked,32,335,1.24,1.0,1.0,o,960,high_f0,high_f0,712.43,fuhr_vor,true
blocked,32,336,1.24,1.0,0.25,u,680,high_f0,high_f0,713.614,schuh_show,false
blocked,32,337,1.24,1.0,0.5,u,960,high_f0,high_f0,715.082,brut_brot,false
blocked,32,338,1.24,1.0,1.0,o,520,high_f0,high_f0,716.105,kur_chor,true
blocked,32,339,1.24,1.0,0.5,u,749,high_f0,high_f0,717.36,ruhm_rom,false
blocked,32,340,1.24,1.0,1.0,o,819,high_f0,high_f0,718.683,zug_zog,true
blocked,32,341,1.24,1.0,0.75,o,928,high_f0,high_f0,720.117,fuhr_vor,true
blocked,32,342,1.24,1.0,0.25,u,600,high_f0,high_f0,721.235,bug_bog,false
blocked,32,343,1.24,1.0,0.0,u,771,high_f0,high_f0,722.511,zug_zog,false
blocked,32,344,1.24,1.0,0.5,u,920,high_f0,high_f0,723.931,ruhm_rom,false
blocked,32,345,1.24,1.0,0.25,u,781,high_f0,high_f0,725.221,tut_tot,false
blocked,32,346,1.24,1.0,0.0,u,691,high_f0,high_f0,726.42,kur_chor,false
blocked,32,347,1.24,1.0,0.75,o,781,high_f0,high_f0,727.699,schuh_show,true
blocked,32,348,1.0,1.0,0.5,o,640,center,high_f0,728.847,kur_chor,true
blocked,32,349,1.24,1.0,0.5,u,699,high_f0,high_f0,730.052,huhn_hohn,false
blocked,32,350,1.24,1.0,0.5,o,512,high_f0,high_f0,731.071,bug_bog,true
blocked,32,351,1.24,1.0,1.0,o,600,high_f0,high_f0,732.184,brut_brot,true
blocked,32,352,1.0,1.0,0.5,o,821,center,high_f0,733.51,schuh_show,true
blocked,32,353,1.24,1.0,0.75,o,909,high_f0,high_f0,734.928,kur_chor,true
blocked,32,354,1.24,1.0,0.5,u,1000,high_f0,high_f0,736.445,zug_zog,false
blocked,32,355,1.0,1.0,0.25,o,720,center,high_f0,737.658,schuh_show,true
blocked,32,356,1.24,1.0,0.75,u,771,high_f0,high_f0,738.929,tut_tot,false
blocked,32,357,1.0,1.0,0.75,o,539,center,high_f0,739.968,kur_chor,true
blocked,32,358,1.24,1.0,0.5,u,712,high_f0,high_f0,741.188,tut_tot,false
blocked,32,359,1.0,1.0,0.25,u,1560,center,high_f0,743.249,ruhm_rom,false
blocked,32,360,1.24,1.0,0.75,o,779,high_f0,high_f0,744.527,brut_brot,true
blocked,32,361,1.24,1.0,1.0,o,1032,high_f0,high_f0,746.076,schuh_show,true
blocked,32,362,1.0,1.0,0.25,o,699,center,high_f0,747.294,bug_bog,true
blocked,32,363,1.24,1.0,0.0,u,568,high_f0,high_f0,748.36,kur_chor,false
blocked,32,364,1.24,1.0,0.25,u,680,high_f0,high_f0,749.539,zug_zog,false
blocked,32,365,1.24,1.0,0.0,u,589,high_f0,high_f0,750.64,huhn_hohn,false
blocked,32,366,1.24,1.0,0.5,u,789,high_f0,high_f0,751.927,ruhm_rom,false
blocked,32,367,1.0,1.0,0.75,o,608,center,high_f0,753.04,zug_zog,true
blocked,32,368,1.24,1.0,0.75,u,1080,high_f0,high_f0,754.627,huhn_hohn,false
blocked,32,369,1.24,1.0,0.75,u,1421,high_f0,high_f0,756.552,brut_brot,false
blocked,32,370,1.24,1.0,0.75,u,909,high_f0,high_f0,757.961,tut_tot,false
blocked,32,371,1.0,1.0,0.25,o,720,center,high_f0,759.183,kur_chor,true
blocked,32,372,1.24,1.0,0.25,u,621,high_f0,high_f0,760.304,bug_bog,false
blocked,32,373,1.24,1.0,1.0,u,971,high_f0,high_f0,761.792,ruhm_rom,false
blocked,32,374,1.24,1.0,0.0,u,840,high_f0,high_f0,763.135,huhn_hohn,false
blocked,32,375,1.24,1.0,0.5,o,949,high_f0,high_f0,764.605,kur_chor,true
blocked,32,376,1.24,1.0,1.0,o,981,high_f0,high_f0,766.1,bug_bog,true
blocked,32,377,1.24,1.0,0.75,u,912,high_f0,high_f0,767.508,ruhm_rom,false
blocked,32,378,1.24,1.0,0.0,u,720,high_f0,high_f0,768.737,brut_brot,false
blocked,32,379,1.24,1.0,0.25,u,691,high_f0,high_f0,769.929,zug_zog,false
blocked,32,380,1.24,1.0,0.0,u,720,high_f0,high_f0,771.156,huhn_hohn,false
blocked,32,381,1.0,1.0,0.5,u,2709,center,high_f0,774.37,ruhm_rom,false
blocked,32,382,1.24,1.0,0.0,u,669,high_f0,high_f0,775.546,kur_chor,false
blocked,32,383,1.24,1.0,0.25,u,789,high_f0,high_f0,776.845,brut_brot,false
blocked,32,384,1.24,1.0,0.5,u,720,high_f0,high_f0,778.069,bug_bog,false
blocked,32,385,1.24,1.0,0.75,o,600,high_f0,high_f0,779.172,zug_zog,true
blocked,32,386,1.24,1.0,0.75,o,760,high_f0,high_f0,780.437,fuhr_vor,true
blocked,32,387,1.24,1.0,0.5,u,549,high_f0,high_f0,781.501,huhn_hohn,false
blocked,32,388,1.24,1.0,0.25,u,920,high_f0,high_f0,782.921,zug_zog,false
blocked,32,389,1.24,1.0,0.25,u,720,high_f0,high_f0,784.151,kur_chor,false
blocked,32,390,1.0,1.0,0.75,o,739,center,high_f0,785.402,tut_tot,true
blocked,32,391,1.24,1.0,1.0,u,1120,high_f0,high_f0,787.029,schuh_show,false
blocked,32,392,1.24,1.0,0.25,u,680,high_f0,high_f0,788.224,fuhr_vor,false
blocked,32,393,1.24,1.0,0.0,u,651,high_f0,high_f0,789.369,zug_zog,false
blocked,32,394,1.24,1.0,0.0,u,672,high_f0,high_f0,790.549,fuhr_vor,false
blocked,32,395,1.24,1.0,0.5,u,720,high_f0,high_f0,791.779,schuh_show,false
blocked,32,396,1.24,1.0,0.25,u,611,high_f0,high_f0,792.903,huhn_hohn,false
blocked,32,397,1.24,1.0,0.5,u,781,high_f0,high_f0,794.19,zug_zog,false
blocked,32,398,1.24,1.0,1.0,u,979,high_f0,high_f0,795.681,huhn_hohn,false
blocked,32,399,1.24,1.0,0.0,u,619,high_f0,high_f0,796.812,brut_brot,false
blocked,32,400,1.24,1.0,0.25,u,632,high_f0,high_f0,797.956,kur_chor,false
blocked,32,401,1.24,1.0,0.0,u,680,high_f0,high_f0,799.154,tut_tot,false
blocked,32,402,1.24,1.0,0.75,u,451,high_f0,high_f0,800.111,ruhm_rom,false
blocked,32,403,1.24,1.0,0.0,u,629,high_f0,high_f0,801.251,zug_zog,false
blocked,32,404,1.24,1.0,1.0,o,760,high_f0,high_f0,802.526,tut_tot,true
blocked,32,405,1.24,1.0,0.0,u,608,high_f0,high_f0,803.637,huhn_hohn,false
blocked,32,406,1.24,1.0,0.0,u,819,high_f0,high_f0,804.968,bug_bog,false
blocked,32,407,1.0,1.0,0.75,o,749,center,high_f0,806.225,ruhm_rom,true
blocked,32,408,1.24,1.0,0.5,u,691,high_f0,high_f0,807.422,schuh_show,false
blocked,32,409,1.24,1.0,1.0,o,851,high_f0,high_f0,808.777,kur_chor,true
blocked,32,410,1.24,1.0,0.75,u,1171,high_f0,high_f0,810.461,zug_zog,false
blocked,32,411,1.24,1.0,0.75,u,661,high_f0,high_f0,811.633,bug_bog,false
blocked,32,412,1.24,1.0,0.75,o,789,high_f0,high_f0,812.941,kur_chor,true
blocked,32,413,1.24,1.0,0.5,u,640,high_f0,high_f0,814.089,zug_zog,false
blocked,32,414,1.0,1.0,0.25,o,899,center,high_f0,815.49,fuhr_vor,true
blocked,32,415,1.0,1.146,0.5,o,1051,high_ff,high_ff,832.065,schuh_show,true
blocked,32,416,1.0,1.146,0.25,o,661,high_ff,high_ff,833.219,zug_zog,true
blocked,32,417,1.0,1.146,0.0,o,691,high_ff,high_ff,834.421,schuh_show,true
blocked,32,418,1.0,1.0,0.25,u,709,center,high_ff,835.645,bug_bog,false
blocked,32,419,1.0,1.146,1.0,u,1259,high_ff,high_ff,837.413,ruhm_rom,false
blocked,32,420,1.0,1.146,0.0,o,1099,high_ff,high_ff,839.009,schuh_show,true
blocked,32,421,1.0,1.146,0.25,o,901,high_ff,high_ff,840.427,huhn_hohn,true
blocked,32,422,1.0,1.146,0.0,o,731,high_ff,high_ff,841.663,kur_chor,true
blocked,32,423,1.0,1.146,0.75,o,800,high_ff,high_ff,842.963,tut_tot,true
blocked,32,424,1.0,1.146,0.75,o,1141,high_ff,high_ff,844.618,schuh_show,true
blocked,32,425,1.0,1.146,0.75,o,1000,high_ff,high_ff,846.133,bug_bog,true
blocked,32,426,1.0,1.146,0.0,u,992,high_ff,high_ff,847.631,fuhr_vor,false
blocked,32,427,1.0,1.146,1.0,o,661,high_ff,high_ff,848.793,kur_chor,true
blocked,32,428,1.0,1.146,0.0,o,949,high_ff,high_ff,850.257,fuhr_vor,true
blocked,32,429,1.0,1.0,0.25,u,851,center,high_ff,851.621,schuh_show,false
blocked,32,430,1.0,1.146,0.5,o,669,high_ff,high_ff,852.798,tut_tot,true
blocked,32,431,1.0,1.146,0.0,u,1080,high_ff,high_ff,854.391,ruhm_rom,false
blocked,32,432,1.0,1.146,1.0,o,680,high_ff,high_ff,855.579,fuhr_vor,true
blocked,32,433,1.0,1.146,0.5,o,621,high_ff,high_ff,856.705,tut_tot,true
blocked,32,434,1.0,1.0,0.25,u,771,center,high_ff,857.984,brut_brot,false
blocked,32,435,1.0,1.146,0.75,o,611,high_ff,high_ff,859.118,huhn_hohn,true
blocked,32,436,1.0,1.146,0.25,o,549,high_ff,high_ff,860.173,bug_bog,true
blocked,32,437,1.0,1.146,0.25,u,1032,high_ff,high_ff,861.71,ruhm_rom,false
blocked,32,438,1.0,1.146,0.75,o,629,high_ff,high_ff,862.857,brut_brot,true
blocked,32,439,1.0,1.146,0.25,u,752,high_ff,high_ff,864.113,huhn_hohn,false
blocked,32,440,1.0,1.146,0.25,o,909,high_ff,high_ff,865.536,fuhr_vor,true
blocked,32,441,1.0,1.0,0.5,o,880,center,high_ff,866.918,kur_chor,true
blocked,32,442,1.0,1.146,0.25,o,669,high_ff,high_ff,868.089,brut_brot,true
blocked,32,443,1.0,1.146,0.5,u,1192,high_ff,high_ff,869.794,ruhm_rom,false
blocked,32,444,1.0,1.146,0.75,o,651,high_ff,high_ff,870.951,bug_bog,true
blocked,32,445,1.0,1.146,0.5,o,880,high_ff,high_ff,872.337,tut_tot,true
blocked,32,446,1.0,1.146,0.5,o,840,high_ff,high_ff,873.678,fuhr_vor,true
blocked,32,447,1.0,1.146,0.75,u,840,high_ff,high_ff,875.03,ruhm_rom,false
blocked,32,448,1.0,1.146,1.0,o,600,high_ff,high_ff,876.144,kur_chor,true
blocked,32,449,1.0,1.146,0.5,o,1109,high_ff,high_ff,877.758,huhn_hohn,true
blocked,32,450,1.0,1.146,0.5,o,1469,high_ff,high_ff,879.745,ruhm_rom,true
blocked,32,451,1.0,1.146,1.0,o,1069,high_ff,high_ff,881.318,huhn_hohn,true
blocked,32,452,1.0,1.146,0.75,o,629,high_ff,high_ff,882.46,kur_chor,true
blocked,32,453,1.0,1.0,0.5,u,1021,center,high_ff,883.987,fuhr_vor,false
blocked,32,454,1.0,1.146,0.75,o,811,high_ff,high_ff,885.303,ruhm_rom,true
blocked,32,455,1.0,1.146,0.5,u,541,high_ff,high_ff,886.351,fuhr_vor,false
blocked,32,456,1.0,1.146,1.0,o,651,high_ff,high_ff,887.515,kur_chor,true
blocked,32,457,1.0,1.146,0.25,o,579,high_ff,high_ff,888.61,tut_tot,true
blocked,32,458,1.0,1.0,0.5,u,741,center,high_ff,889.859,bug_bog,false
blocked,32,459,1.0,1.146,0.25,u,1029,high_ff,high_ff,891.398,ruhm_rom,false
blocked,32,460,1.0,1.146,0.25,o,739,high_ff,high_ff,892.651,fuhr_vor,true
blocked,32,461,1.0,1.146,0.25,o,981,high_ff,high_ff,894.146,schuh_show,true
blocked,32,462,1.0,1.146,0.75,o,800,high_ff,high_ff,895.455,brut_brot,true
blocked,32,463,1.0,1.146,0.5,o,691,high_ff,high_ff,896.648,huhn_hohn,true
blocked,32,464,1.0,1.146,1.0,o,731,high_ff,high_ff,897.888,bug_bog,true
blocked,32,465,1.0,1.0,0.25,u,752,center,high_ff,899.156,zug_zog,false
blocked,32,466,1.0,1.146,1.0,o,600,high_ff,high_ff,900.269,tut_tot,true
blocked,32,467,1.0,1.146,0.25,o,611,high_ff,high_ff,901.379,brut_brot,true
blocked,32,468,1.0,1.146,0.25,o,741,high_ff,high_ff,902.628,schuh_show,true
blocked,32,469,1.0,1.0,0.25,u,581,center,high_ff,903.71,tut_tot,false
blocked,32,470,1.0,1.146,0.25,o,629,high_ff,high_ff,904.846,zug_zog,true
blocked,32,471,1.0,1.146,1.0,o,651,high_ff,high_ff,905.989,huhn_hohn,true
blocked,32,472,1.0,1.146,0.5,o,741,high_ff,high_ff,907.23,kur_chor,true
blocked,32,473,1.0,1.146,0.25,o,651,high_ff,high_ff,908.393,tut_tot,true
blocked,32,474,1.0,1.0,0.25,u,509,center,high_ff,909.411,huhn_hohn,false
blocked,32,475,1.0,1.146,0.25,o,661,high_ff,high_ff,910.577,fuhr_vor,true
blocked,32,476,1.0,1.146,0.0,u,701,high_ff,high_ff,911.794,ruhm_rom,false
blocked,32,477,1.0,1.146,0.0,o,520,high_ff,high_ff,912.82,bug_bog,true
blocked,32,478,1.0,1.146,1.0,o,680,high_ff,high_ff,914.01,tut_tot,true
blocked,32,479,1.0,1.146,0.5,o,619,high_ff,high_ff,915.131,zug_zog,true
blocked,32,480,1.0,1.146,1.0,o,560,high_ff,high_ff,916.205,brut_brot,true
blocked,32,481,1.0,1.146,0.75,o,760,high_ff,high_ff,917.469,fuhr_vor,true
blocked,32,482,1.0,1.146,1.0,o,549,high_ff,high_ff,918.519,bug_bog,true
blocked,32,483,1.0,1.146,0.5,o,971,high_ff,high_ff,919.988,brut_brot,true
blocked,32,484,1.0,1.146,0.75,o,651,high_ff,high_ff,921.148,huhn_hohn,true
blocked,32,485,1.0,1.146,0.0,u,651,high_ff,high_ff,922.311,ruhm_rom,false
blocked,32,486,1.0,1.146,0.75,o,531,high_ff,high_ff,923.346,fuhr_vor,true
blocked,32,487,1.0,1.146,0.75,o,880,high_ff,high_ff,924.728,schuh_show,true
blocked,32,488,1.0,1.0,0.75,o,939,center,high_ff,926.175,fuhr_vor,true
blocked,32,489,1.0,1.146,0.25,o,691,high_ff,high_ff,927.381,tut_tot,true
blocked,32,490,1.0,1.0,0.5,u,949,center,high_ff,928.837,brut_brot,false
blocked,32,491,1.0,1.146,0.5,o,800,high_ff,high_ff,930.136,zug_zog,true
blocked,32,492,1.0,1.146,0.0,o,829,high_ff,high_ff,931.484,tut_tot,true
blocked,32,493,1.0,1.0,0.25,u,808,center,high_ff,932.8,fuhr_vor,false
blocked,32,494,1.0,1.146,0.25,o,669,high_ff,high_ff,933.976,brut_brot,true
blocked,32,495,1.0,1.146,0.75,o,840,high_ff,high_ff,935.318,zug_zog,true
blocked,32,496,1.0,1.146,1.0,o,1000,high_ff,high_ff,936.825,schuh_show,true
blocked,32,497,1.0,1.146,0.0,o,741,high_ff,high_ff,938.07,kur_chor,true
blocked,32,498,1.0,1.0,0.5,u,589,center,high_ff,939.161,zug_zog,false
blocked,32,499,1.0,1.146,0.75,o,549,high_ff,high_ff,940.218,brut_brot,true
blocked,32,500,1.0,1.0,0.5,u,680,center,high_ff,941.404,huhn_hohn,false
blocked,32,501,1.0,1.146,0.0,u,1032,high_ff,high_ff,942.948,brut_brot,false
blocked,32,502,1.0,1.146,0.25,o,581,high_ff,high_ff,944.032,zug_zog,true
blocked,32,503,1.0,1.146,1.0,o,819,high_ff,high_ff,945.366,schuh_show,true
blocked,32,504,1.0,1.146,0.25,o,648,high_ff,high_ff,946.52,kur_chor,true
blocked,32,505,1.0,1.146,1.0,o,819,high_ff,high_ff,947.856,bug_bog,true
blocked,32,506,1.0,1.146,0.75,o,789,high_ff,high_ff,949.161,huhn_hohn,true
blocked,32,507,1.0,1.146,0.5,o,800,high_ff,high_ff,950.469,zug_zog,true
blocked,32,508,1.0,1.146,0.0,u,819,high_ff,high_ff,951.801,ruhm_rom,false
blocked,32,509,1.0,1.146,0.5,o,869,high_ff,high_ff,953.171,fuhr_vor,true
blocked,32,510,1.0,1.146,0.0,u,640,high_ff,high_ff,954.322,huhn_hohn,false
blocked,32,511,1.0,1.0,0.75,u,1029,center,high_ff,955.859,brut_brot,false
blocked,32,512,1.0,1.146,0.5,o,701,high_ff,high_ff,957.069,tut_tot,true
blocked,32,513,1.0,1.146,0.5,o,899,high_ff,high_ff,958.481,schuh_show,true
blocked,32,514,1.0,1.0,0.5,u,651,center,high_ff,959.632,tut_tot,false
blocked,32,515,1.0,1.146,0.5,u,1029,high_ff,high_ff,961.169,ruhm_rom,false
blocked,32,516,1.0,1.146,0.0,o,621,high_ff,high_ff,962.306,kur_chor,true
blocked,32,517,1.0,1.146,1.0,o,821,high_ff,high_ff,963.636,huhn_hohn,true
blocked,32,518,1.0,1.0,0.75,o,819,center,high_ff,964.967,zug_zog,true
blocked,32,519,1.0,1.146,0.0,o,960,high_ff,high_ff,981.43,kur_chor,true
blocked,32,520,1.0,1.146,0.75,o,739,high_ff,high_ff,982.683,schuh_show,true
blocked,32,521,1.0,1.0,0.75,u,869,center,high_ff,984.058,ruhm_rom,false
blocked,32,522,1.0,1.146,1.0,o,661,high_ff,high_ff,985.235,brut_brot,true
blocked,32,523,1.0,1.146,0.0,u,888,high_ff,high_ff,986.644,tut_tot,false
blocked,32,524,1.0,1.146,0.75,o,779,high_ff,high_ff,987.927,zug_zog,true
blocked,32,525,1.0,1.146,0.0,u,989,high_ff,high_ff,989.419,fuhr_vor,false
blocked,32,526,1.0,1.146,0.75,o,952,high_ff,high_ff,990.874,kur_chor,true
blocked,32,527,1.0,1.146,0.0,o,1000,high_ff,high_ff,992.385,zug_zog,true
blocked,32,528,1.0,1.146,0.5,o,600,high_ff,high_ff,993.497,bug_bog,true
blocked,32,529,1.0,1.146,0.25,o,829,high_ff,high_ff,994.84,zug_zog,true
blocked,32,530,1.0,1.146,0.75,u,880,high_ff,high_ff,996.228,ruhm_rom,false
blocked,32,531,1.0,1.146,1.0,o,771,high_ff,high_ff,997.497,schuh_show,true
blocked,32,532,1.0,1.146,0.5,o,571,high_ff,high_ff,998.572,kur_chor,true
blocked,32,533,1.0,1.146,0.25,o,848,high_ff,high_ff,999.924,schuh_show,true
blocked,32,534,1.0,1.146,1.0,o,811,high_ff,high_ff,1001.235,fuhr_vor,true
blocked,32,535,1.0,1.146,0.75,o,699,high_ff,high_ff,1002.44,kur_chor,true
blocked,32,536,1.0,1.0,0.5,u,728,center,high_ff,1003.677,ruhm_rom,false
blocked,32,537,1.0,1.146,0.25,o,560,high_ff,high_ff,1004.746,bug_bog,true
blocked,32,538,1.0,1.146,0.5,o,1051,high_ff,high_ff,1006.299,fuhr_vor,true
blocked,32,539,1.0,1.0,0.75,o,931,center,high_ff,1007.736,schuh_show,true
blocked,32,540,1.0,1.146,0.25,o,840,high_ff,high_ff,1009.081,kur_chor,true
blocked,32,541,1.0,1.146,1.0,o,739,high_ff,high_ff,1010.332,zug_zog,true
blocked,32,542,1.0,1.146,0.25,o,648,high_ff,high_ff,1011.486,kur_chor,true
blocked,32,543,1.0,1.146,0.5,o,659,high_ff,high_ff,1012.652,bug_bog,true
blocked,32,544,1.0,1.146,0.25,u,739,high_ff,high_ff,1013.889,ruhm_rom,false
blocked,32,545,1.0,1.146,0.75,o,611,high_ff,high_ff,1015.01,brut_brot,true
blocked,32,546,1.0,1.0,0.75,o,709,center,high_ff,1016.226,kur_chor,true
