experiment,participant,trial_number,f0,ff,morph,response,rt,speaker,time_elapsed,wordpair,response_o,rt_valid,trial_valid
mixed,1,1,1.0,1.0,0.5,u,3472,center,160.646,brut_brot,false,true,true
mixed,1,2,0.806,1.0,0.5,o,1269,low_f0,162.423,bug_bog,true,true,true
mixed,1,3,1.0,0.873,0.0,u,1491,low_ff,164.423,brut_brot,false,true,true
mixed,1,4,0.806,1.0,0.75,o,1048,low_f0,165.98,kur_chor,true,true,true
mixed,1,5,1.24,1.0,0.75,u,1059,high_f0,167.551,fuhr_vor,false,true,true
mixed,1,6,1.0,1.0,0.75,o,939,center,168.988,brut_brot,true,true,true
mixed,1,7,1.0,0.873,0.75,o,861,low_ff,170.357,huhn_hohn,true,true,true
mixed,1,8,1.24,1.0,0.5,u,811,high_f0,171.676,fuhr_vor,false,true,true
mixed,1,9,1.0,1.0,0.25,o,1432,center,173.61,tut_tot,true,true,true
mixed,1,10,1.24,1.0,0.0,u,1579,high_f0,175.7,schuh_show,false,true,true
mixed,1,11,1.0,1.146,0.5,o,1472,high_ff,177.687,fuhr_vor,true,true,true
mixed,1,12,0.806,1.0,0.0,o,979,low_f0,179.184,bug_bog,true,true,true
mixed,1,13,1.0,0.873,0.5,u,1101,low_ff,180.799,ruhm_rom,false,true,true
mixed,1,14,1.0,1.146,0.25,o,1021,high_ff,182.324,brut_brot,true,true,true
mixed,1,15,0.806,1.0,0.75,o,960,low_f0,183.785,schuh_show,true,true,true
mixed,1,16,1.24,1.0,0.25,u,1011,high_f0,185.307,tut_tot,false,true,true
mixed,1,17,1.0,0.873,0.5,u,928,low_ff,186.738,huhn_hohn,false,true,true
mixed,1,18,1.0,1.0,0.25,u,899,center,188.133,zug_zog,false,true,true
mixed,1,19,1.0,0.873,0.0,u,949,low_ff,189.584,fuhr_vor,false,true,true
mixed,1,20,1.24,1.0,0.75,o,909,high_f0,190.996,zug_zog,true,true,true
mixed,1,21,0.806,1.0,0.25,u,851,low_f0,192.361,fuhr_vor,false,true,true
mixed,1,22,1.0,1.0,0.75,o,1509,center,194.378,schuh_show,true,true,true
mixed,1,23,0.806,1.0,0.75,o,1181,low_f0,196.074,bug_bog,true,true,true
mixed,1,24,1.0,1.146,0.25,o,1141,high_ff,197.716,brut_brot,true,true,true
mixed,1,25,1.24,1.0,0.5,u,2301,high_f0,200.515,schuh_show,false,true,true
mixed,1,26,0.806,1.0,0.25,o,1421,low_f0,202.434,kur_chor,true,true,true
mixed,1,27,1.0,1.0,0.5,u,1331,center,204.275,fuhr_vor,false,true,true
mixed,1,28,1.0,1.146,0.0,o,949,high_ff,205.741,bug_bog,true,true,true
mixed,1,29,1.24,1.0,0.5,o,1008,high_f0,207.253,brut_brot,true,true,true
mixed,1,30,1.0,0.873,0.5,u,931,low_ff,208.686,tut_tot,false,true,true
mixed,1,31,1.0,1.0,0.5,o,789,center,209.978,zug_zog,true,true,true
mixed,1,32,0.806,1.0,0.5,o,648,low_f0,211.14,brut_brot,true,true,true
mixed,1,33,1.0,0.873,0.5,u,811,low_ff,212.452,fuhr_vor,false,true,true
mixed,1,34,1.0,1.146,1.0,o,549,high_ff,213.503,brut_brot,true,true,true
mixed,1,35,1.0,0.873,0.5,u,1112,low_ff,215.126,fuhr_vor,false,true,true
mixed,1,36,1.0,1.0,0.25,u,931,center,216.563,kur_chor,false,true,true
mixed,1,37,1.0,0.873,0.25,u,1371,low_ff,218.44,brut_brot,false,true,true
mixed,1,38,0.806,1.0,0.0,o,2211,low_f0,221.16,schuh_show,true,true,true
mixed,1,39,1.0,0.873,0.75,o,1659,low_ff,223.334,ruhm_rom,true,true,true
mixed,1,40,0.806,1.0,0.25,o,1709,low_f0,225.559,zug_zog,true,true,true
mixed,1,41,1.0,1.0,0.5,o,1341,center,227.401,kur_chor,true,true,true
mixed,1,42,1.24,1.0,1.0,o,779,high_f0,228.701,brut_brot,true,true,true
mixed,1,43,0.806,1.0,0.0,u,1320,low_f0,230.524,ruhm_rom,false,true,true
mixed,1,44,1.0,0.873,1.0,o,899,low_ff,231.94,tut_tot,true,true,true
mixed,1,45,0.806,1.0,0.75,o,1701,low_f0,234.153,huhn_hohn,true,true,true
mixed,1,46,1.0,1.0,0.5,o,1189,center,235.862,bug_bog,true,true,true
mixed,1,47,0.806,1.0,0.5,o,1829,low_f0,238.193,schuh_show,true,true,true
mixed,1,48,1.0,1.146,0.75,o,1091,high_ff,239.795,huhn_hohn,true,true,true
mixed,1,49,1.0,0.873,0.0,u,691,low_ff,240.996,fuhr_vor,false,true,true
mixed,1,50,1.0,1.0,0.75,o,840,center,242.348,zug_zog,true,true,true
mixed,1,51,1.0,1.146,0.25,o,848,high_ff,243.703,bug_bog,true,true,true
mixed,1,52,1.24,1.0,0.5,u,688,high_f0,244.897,huhn_hohn,false,true,true
mixed,1,53,0.806,1.0,0.0,o,1528,low_f0,246.939,schuh_show,true,true,true
mixed,1,54,1.0,0.873,0.5,u,731,low_ff,248.186,kur_chor,false,true,true
mixed,1,55,1.0,1.146,0.0,o,829,high_ff,249.521,tut_tot,true,true,true
mixed,1,56,1.0,0.873,0.75,u,1109,low_ff,251.136,ruhm_rom,false,true,true
mixed,1,57,0.806,1.0,1.0,o,760,low_f0,252.412,fuhr_vor,true,true,true
mixed,1,58,1.0,0.873,0.25,u,800,low_ff,253.723,brut_brot,false,true,true
mixed,1,59,0.806,1.0,0.25,o,709,low_f0,254.945,zug_zog,true,true,true
mixed,1,60,1.0,1.146,0.0,u,661,high_ff,256.119,kur_chor,false,true,true
mixed,1,61,1.0,1.0,0.5,o,1869,center,258.495,zug_zog,true,true,true
mixed,1,62,1.24,1.0,0.25,u,920,high_f0,259.92,ruhm_rom,false,true,true
mixed,1,63,1.0,1.0,0.75,o,1240,center,261.681,huhn_hohn,true,true,true
mixed,1,64,1.0,1.146,0.0,o,2040,high_ff,264.227,ruhm_rom,true,true,true
mixed,1,65,1.24,1.0,0.0,u,1171,high_f0,265.906,brut_brot,false,true,true
mixed,1,66,0.806,1.0,0.25,o,1728,low_f0,268.143,kur_chor,true,true,true
mixed,1,67,1.24,1.0,0.0,u,1179,high_f0,269.823,huhn_hohn,false,true,true
mixed,1,68,1.0,0.873,0.5,u,1000,low_ff,271.324,ruhm_rom,false,true,true
mixed,1,69,1.24,1.0,0.0,u,1400,high_f0,273.237,schuh_show,false,true,true
mixed,1,70,1.0,0.873,0.75,u,792,low_ff,274.527,bug_bog,false,true,true
mixed,1,71,1.24,1.0,1.0,o,1109,high_f0,276.137,kur_chor,true,true,true
mixed,1,72,0.806,1.0,1.0,o,829,low_f0,277.466,tut_tot,true,true,true
mixed,1,73,1.24,1.0,0.75,o,1429,high_f0,279.399,kur_chor,true,true,true
mixed,1,74,1.0,1.146,0.0,o,1120,high_ff,281.026,zug_zog,true,true,true
mixed,1,75,0.806,1.0,0.5,o,1611,low_f0,283.146,schuh_show,true,true,true
mixed,1,76,1.24,1.0,0.75,u,1181,high_f0,284.837,brut_brot,false,true,true
mixed,1,77,0.806,1.0,0.0,u,2960,low_f0,288.307,fuhr_vor,false,true,true
mixed,1,78,1.0,0.873,0.75,u,1371,low_ff,290.191,schuh_show,false,true,true
mixed,1,79,1.0,1.0,0.75,u,811,center,291.523,huhn_hohn,false,true,true
mixed,1,80,1.24,1.0,0.0,u,941,high_f0,292.968,fuhr_vor,false,true,true
mixed,1,81,1.0,1.146,0.75,o,960,high_ff,294.429,schuh_show,true,true,true
mixed,1,82,1.0,0.873,0.25,u,741,low_ff,295.69,zug_zog,false,true,true
mixed,1,83,0.806,1.0,1.0,o,619,low_f0,296.833,bug_bog,true,true,true
mixed,1,84,1.0,0.873,0.25,u,621,low_ff,297.964,kur_chor,false,true,true
mixed,1,85,1.0,1.146,0.25,o,811,high_ff,299.277,brut_brot,true,true,true
mixed,1,86,0.806,1.0,1.0,o,1669,low_f0,301.454,ruhm_rom,true,true,true
mixed,1,87,1.24,1.0,0.5,o,1040,high_f0,303.001,tut_tot,true,true,true
mixed,1,88,1.0,0.873,0.0,u,1179,low_ff,304.697,kur_chor,false,true,true
mixed,1,89,0.806,1.0,0.0,o,1520,low_f0,306.731,ruhm_rom,true,true,true
mixed,1,90,1.0,1.146,0.75,o,1229,high_ff,308.472,zug_zog,true,true,true
mixed,1,91,1.24,1.0,1.0,o,1440,high_f0,310.419,brut_brot,true,true,true
mixed,1,92,1.0,1.146,1.0,o,1411,high_ff,312.348,huhn_hohn,true,true,true
mixed,1,93,1.24,1.0,0.5,u,1331,high_f0,314.186,schuh_show,false,true,true
mixed,1,94,0.806,1.0,1.0,o,941,low_f0,315.637,fuhr_vor,true,true,true
mixed,1,95,1.0,0.873,1.0,u,1240,low_ff,317.387,huhn_hohn,false,true,true
mixed,1,96,1.24,1.0,0.5,o,819,high_f0,318.712,tut_tot,true,true,true
mixed,1,97,1.0,0.873,1.0,o,3141,low_ff,322.358,bug_bog,true,true,true
mixed,1,98,1.0,1.146,0.25,o,909,high_ff,323.78,tut_tot,true,true,true
mixed,1,99,0.806,1.0,1.0,o,1429,low_f0,325.722,ruhm_rom,true,true,true
mixed,1,100,1.0,1.0,0.25,o,1000,center,327.233,brut_brot,true,true,true
mixed,1,101,0.806,1.0,1.0,o,832,low_f0,328.564,huhn_hohn,true,true,true
mixed,1,102,1.24,1.0,0.25,u,1040,high_f0,330.116,ruhm_rom,false,true,true
mixed,1,103,0.806,1.0,1.0,o,1392,low_f0,332.013,bug_bog,true,true,true
mixed,1,104,1.0,1.146,0.25,o,1069,high_ff,333.584,zug_zog,true,true,true
mixed,1,105,1.24,1.0,0.25,u,952,high_f0,350.047,fuhr_vor,false,true,true
mixed,1,106,0.806,1.0,0.25,o,869,low_f0,351.423,tut_tot,true,true,true
mixed,1,107,1.0,0.873,0.75,o,1509,low_ff,353.442,kur_chor,true,true,true
mixed,1,108,0.806,1.0,0.25,o,1200,low_f0,355.149,huhn_hohn,true,true,true
mixed,1,109,1.0,0.873,1.0,u,821,low_ff,356.474,fuhr_vor,false,true,true
mixed,1,110,1.0,1.146,1.0,,,high_ff,361.985,bug_bog,,,false
mixed,1,111,0.806,1.0,1.0,o,2291,low_f0,365.792,zug_zog,true,true,true
mixed,1,112,1.0,0.873,1.0,o,1291,low_ff,367.584,tut_tot,true,true,true
mixed,1,113,1.0,1.0,0.75,u,789,center,368.879,fuhr_vor,false,true,true
mixed,1,114,1.0,1.146,0.75,o,669,high_ff,370.056,tut_tot,true,true,true
mixed,1,115,1.0,0.873,0.25,u,920,low_ff,371.49,huhn_hohn,false,true,true
mixed,1,116,1.0,1.146,1.0,o,1829,high_ff,373.819,schuh_show,true,true,true
mixed,1,117,0.806,1.0,1.0,o,749,low_f0,375.083,zug_zog,true,true,true
mixed,1,118,1.24,1.0,0.0,u,880,high_f0,376.471,ruhm_rom,false,true,true
mixed,1,119,1.0,1.146,0.75,o,851,high_ff,377.828,zug_zog,true,true,true
mixed,1,120,1.24,1.0,1.0,u,1312,high_f0,379.643,kur_chor,false,true,true
mixed,1,121,1.0,0.873,0.25,u,1541,low_ff,381.692,bug_bog,false,true,true
mixed,1,122,0.806,1.0,0.75,o,1128,low_f0,383.335,tut_tot,true,true,true
mixed,1,123,1.0,0.873,1.0,o,1571,low_ff,385.412,ruhm_rom,true,true,true
mixed,1,124,1.0,1.0,0.25,o,1349,center,387.276,bug_bog,true,true,true
mixed,1,125,1.0,0.873,0.5,o,1141,low_ff,388.928,brut_brot,true,true,true
mixed,1,126,1.24,1.0,0.5,u,821,high_f0,390.246,fuhr_vor,false,true,true
mixed,1,127,1.0,0.873,1.0,o,720,low_ff,391.467,brut_brot,true,true,true
mixed,1,128,0.806,1.0,0.75,o,781,low_f0,392.76,bug_bog,true,true,true
mixed,1,129,1.24,1.0,1.0,u,792,high_f0,394.045,zug_zog,false,true,true
mixed,1,130,1.0,1.146,1.0,o,1240,high_ff,395.798,brut_brot,true,true,true
mixed,1,131,1.0,1.0,0.75,o,1152,center,397.451,kur_chor,true,true,true
mixed,1,132,1.0,1.146,0.75,o,1211,high_ff,399.155,fuhr_vor,true,true,true
mixed,1,133,1.24,1.0,0.0,u,792,high_f0,400.448,tut_tot,false,true,true
mixed,1,134,1.0,0.873,1.0,o,1291,low_ff,402.245,zug_zog,true,true,true
mixed,1,135,1.0,1.0,0.25,u,941,center,403.686,huhn_hohn,false,true,true
mixed,1,136,1.24,1.0,0.25,u,1349,high_f0,405.552,fuhr_vor,false,true,true
mixed,1,137,1.0,0.873,0.0,u,1560,low_ff,407.613,schuh_show,false,true,true
mixed,1,138,0.806,1.0,1.0,o,909,low_f0,409.038,brut_brot,true,true,true
mixed,1,139,1.0,0.873,1.0,o,851,low_ff,410.395,tut_tot,true,true,true
mixed,1,140,1.0,1.146,0.0,o,1789,high_ff,412.699,schuh_show,true,true,true
mixed,1,141,0.806,1.0,0.5,u,2059,low_f0,415.272,ruhm_rom,false,true,true
mixed,1,142,1.0,1.0,0.25,u,1261,center,417.045,zug_zog,false,true,true
mixed,1,143,1.0,1.146,0.25,o,1200,high_ff,418.759,schuh_show,true,true,true
mixed,1,144,1.24,1.0,0.0,u,1160,high_f0,420.435,fuhr_vor,false,true,true
mixed,1,145,1.0,1.146,0.5,o,741,high_ff,421.677,brut_brot,true,true,true
mixed,1,146,1.24,1.0,1.0,o,1091,high_f0,423.274,schuh_show,true,true,true
mixed,1,147,1.0,1.146,0.5,o,1352,high_ff,425.123,bug_bog,true,true,true
mixed,1,148,1.24,1.0,0.5,u,960,high_f0,426.589,fuhr_vor,false,true,true
mixed,1,149,1.0,1.146,1.0,o,1011,high_ff,428.112,ruhm_rom,true,true,true
mixed,1,150,1.0,0.873,0.0,u,912,low_ff,429.525,zug_zog,false,true,true
mixed,1,151,1.24,1.0,1.0,o,821,high_f0,430.844,huhn_hohn,true,true,true
mixed,1,152,0.806,1.0,0.5,o,701,low_f0,432.043,bug_bog,true,true,true
mixed,1,153,1.0,0.873,0.0,u,811,low_ff,433.37,fuhr_vor,false,true,true
mixed,1,154,0.806,1.0,0.0,u,928,low_f0,434.819,zug_zog,false,true,true
mixed,1,155,1.0,1.146,1.0,o,829,high_ff,436.158,huhn_hohn,true,true,true
mixed,1,156,1.0,1.0,0.75,o,851,center,437.514,schuh_show,true,true,true
mixed,1,157,1.24,1.0,0.5,o,621,high_f0,438.651,bug_bog,true,true,true
mixed,1,158,0.806,1.0,0.75,o,699,low_f0,439.865,kur_chor,true,true,true
mixed,1,159,1.0,1.146,1.0,o,672,high_ff,441.045,bug_bog,true,true,true
mixed,1,160,0.806,1.0,1.0,o,1171,low_f0,442.732,schuh_show,true,true,true
mixed,1,161,1.0,0.873,0.75,o,949,low_ff,444.183,tut_tot,true,true,true
mixed,1,162,0.806,1.0,0.25,o,1819,low_f0,446.505,fuhr_vor,true,true,true
mixed,1,163,1.0,1.146,0.75,u,1600,high_ff,448.616,ruhm_rom,false,true,true
mixed,1,164,1.24,1.0,0.75,o,1451,high_f0,450.57,fuhr_vor,true,true,true
mixed,1,165,1.0,1.146,1.0,o,2069,high_ff,453.146,schuh_show,true,true,true
mixed,1,166,1.0,0.873,0.75,u,1261,low_ff,454.919,zug_zog,false,true,true
mixed,1,167,0.806,1.0,0.25,o,1661,low_f0,457.084,schuh_show,true,true,true
mixed,1,168,1.0,1.146,1.0,o,800,high_ff,458.401,kur_chor,true,true,true
mixed,1,169,1.0,1.0,0.75,o,760,center,459.665,schuh_show,true,true,true
mixed,1,170,0.806,1.0,1.0,o,781,low_f0,460.955,huhn_hohn,true,true,true
mixed,1,171,1.0,1.146,0.25,o,960,high_ff,462.426,kur_chor,true,true,true
mixed,1,172,1.0,0.873,0.5,u,1059,low_ff,463.987,huhn_hohn,false,true,true
mixed,1,173,1.0,1.0,0.75,u,1032,center,465.525,ruhm_rom,false,true,true
mixed,1,174,0.806,1.0,1.0,o,709,low_f0,466.752,brut_brot,true,true,true
mixed,1,175,1.24,1.0,1.0,o,1040,high_f0,468.3,schuh_show,true,true,true
mixed,1,176,0.806,1.0,0.0,u,952,low_f0,469.769,fuhr_vor,false,true,true
mixed,1,177,1.0,1.146,0.75,o,1019,high_ff,471.303,brut_brot,true,true,true
mixed,1,178,1.24,1.0,0.75,o,1549,high_f0,473.353,kur_chor,true,true,true
mixed,1,179,1.0,1.0,0.25,u,2291,center,476.15,bug_bog,false,true,true
mixed,1,180,1.24,1.0,0.0,u,1371,high_f0,478.03,brut_brot,false,true,true
mixed,1,181,1.0,0.873,1.0,u,2899,low_ff,481.424,ruhm_rom,false,true,true
mixed,1,182,1.0,1.146,0.25,o,1419,high_ff,483.344,tut_tot,true,true,true
mixed,1,183,1.0,0.873,0.0,u,872,low_ff,484.725,schuh_show,false,true,true
mixed,1,184,0.806,1.0,0.0,o,1109,low_f0,486.345,huhn_hohn,true,true,true
mixed,1,185,1.0,1.146,0.75,o,989,high_ff,487.835,schuh_show,true,true,true
mixed,1,186,1.0,1.0,0.75,o,1000,center,489.336,huhn_hohn,true,true,true
mixed,1,187,1.0,0.873,0.5,u,819,low_ff,490.66,tut_tot,false,true,true
mixed,1,188,1.0,1.146,0.0,o,709,high_ff,491.874,bug_bog,true,true,true
mixed,1,189,1.24,1.0,1.0,o,1040,high_f0,493.432,schuh_show,true,true,true
mixed,1,190,1.0,1.146,0.5,o,941,high_ff,494.891,ruhm_rom,true,true,true
mixed,1,191,1.24,1.0,0.25,u,611,high_f0,496.004,huhn_hohn,false,true,true
mixed,1,192,1.0,1.146,0.0,o,1040,high_ff,497.559,kur_chor,true,true,true
mixed,1,193,1.0,0.873,0.0,u,1171,low_ff,499.223,brut_brot,false,true,true
mixed,1,194,1.0,1.146,0.0,o,880,high_ff,500.618,fuhr_vor,true,true,true
mixed,1,195,0.806,1.0,0.5,o,979,low_f0,502.093,zug_zog,true,true,true
mixed,1,196,1.0,1.146,0.25,o,688,high_ff,503.293,huhn_hohn,true,true,true
mixed,1,197,1.24,1.0,0.5,u,539,high_f0,504.345,kur_chor,false,true,true
mixed,1,198,1.0,0.873,0.25,u,749,low_ff,505.599,ruhm_rom,false,true,true
mixed,1,199,0.806,1.0,0.5,o,749,low_f0,506.855,kur_chor,true,true,true
mixed,1,200,1.24,1.0,0.5,u,928,high_f0,508.298,huhn_hohn,false,true,true
mixed,1,201,0.806,1.0,0.0,o,731,low_f0,509.531,kur_chor,true,true,true
mixed,1,202,1.0,1.0,0.25,u,1008,center,511.059,ruhm_rom,false,true,true
mixed,1,203,1.24,1.0,0.25,u,1581,high_f0,513.158,bug_bog,false,true,true
mixed,1,204,1.0,1.146,0.0,o,1051,high_ff,514.709,huhn_hohn,true,true,true
mixed,1,205,1.24,1.0,0.0,u,1011,high_f0,516.225,ruhm_rom,false,true,true
mixed,1,206,0.806,1.0,0.5,o,640,low_f0,517.365,zug_zog,true,true,true
mixed,1,207,1.0,1.146,0.25,o,829,high_ff,518.7,bug_bog,true,true,true
mixed,1,208,1.0,0.873,0.5,u,1112,low_ff,535.332,huhn_hohn,false,true,true
mixed,1,209,1.24,1.0,0.0,o,2400,high_f0,538.234,tut_tot,true,true,true
mixed,1,210,1.0,0.873,0.75,u,869,low_ff,539.616,huhn_hohn,false,true,true
mixed,1,211,1.0,1.0,0.25,o,619,center,540.734,ruhm_rom,true,true,true
mixed,1,212,1.0,0.873,0.0,u,739,low_ff,541.973,tut_tot,false,true,true
mixed,1,213,1.0,1.0,0.75,o,1160,center,543.632,kur_chor,true,true,true
mixed,1,214,1.0,1.146,0.75,o,771,high_ff,544.904,fuhr_vor,true,true,true
mixed,1,215,0.806,1.0,1.0,o,749,low_f0,546.162,kur_chor,true,true,true
mixed,1,216,1.0,0.873,1.0,u,1091,low_ff,547.771,brut_brot,false,true,true
mixed,1,217,1.24,1.0,0.5,u,2360,high_f0,550.636,fuhr_vor,false,true,true
mixed,1,218,1.0,0.873,0.75,u,3389,low_ff,554.538,zug_zog,false,true,true
mixed,1,219,0.806,1.0,0.25,,,low_f0,560.055,ruhm_rom,,,false
mixed,1,220,1.24,1.0,0.0,u,1069,high_f0,562.64,huhn_hohn,false,true,true
mixed,1,221,1.0,0.873,0.5,u,1251,low_ff,564.399,zug_zog,false,true,true
mixed,1,222,0.806,1.0,0.25,o,709,low_f0,565.617,bug_bog,true,true,true
mixed,1,223,1.0,1.146,1.0,o,4640,high_ff,570.779,tut_tot,true,true,true
mixed,1,224,1.0,1.0,0.5,u,888,center,572.18,huhn_hohn,false,true,true
mixed,1,225,1.0,1.146,1.0,o,1200,high_ff,573.883,brut_brot,true,true,true
mixed,1,226,0.806,1.0,0.5,o,640,low_f0,575.041,fuhr_vor,true,true,true
mixed,1,227,1.24,1.0,1.0,o,1869,high_f0,577.421,kur_chor,true,true,true
mixed,1,228,0.806,1.0,0.5,o,952,low_f0,578.89,brut_brot,true,true,true
mixed,1,229,1.0,1.0,0.25,u,1011,center,580.41,schuh_show,false,true,true
mixed,1,230,1.0,1.146,0.25,u,821,high_ff,581.73,ruhm_rom,false,true,true
mixed,1,231,1.24,1.0,0.0,u,851,high_f0,583.087,kur_chor,false,true,true
mixed,1,232,1.0,1.0,0.25,u,1339,center,584.941,tut_tot,false,true,true
mixed,1,233,1.0,1.146,1.0,o,2899,high_ff,588.35,bug_bog,true,true,true
mixed,1,234,1.0,0.873,0.0,o,731,low_ff,589.591,zug_zog,true,true,true
mixed,1,235,1.0,1.0,0.25,u,2739,center,592.825,kur_chor,false,true,true
mixed,1,236,1.0,0.873,1.0,u,1859,low_ff,595.184,huhn_hohn,false,true,true
mixed,1,237,1.0,1.146,0.0,o,1120,high_ff,596.816,bug_bog,true,true,true
mixed,1,238,1.0,0.873,0.75,o,1869,low_ff,599.187,kur_chor,true,true,true
mixed,1,239,1.24,1.0,1.0,o,811,high_f0,600.52,zug_zog,true,true,true
mixed,1,240,0.806,1.0,0.25,o,760,low_f0,601.789,brut_brot,true,true,true
mixed,1,241,1.24,1.0,0.0,u,2720,high_f0,605.017,kur_chor,false,true,true
mixed,1,242,1.0,1.146,0.5,o,1419,high_ff,606.941,huhn_hohn,true,true,true
mixed,1,243,1.0,0.873,0.5,u,1059,low_ff,608.505,schuh_show,false,true,true
mixed,1,244,1.24,1.0,0.5,u,1899,high_f0,610.906,huhn_hohn,false,true,true
mixed,1,245,0.806,1.0,1.0,o,1421,low_f0,612.835,kur_chor,true,true,true
mixed,1,246,1.0,1.146,0.25,u,1621,high_ff,614.956,fuhr_vor,false,true,true
mixed,1,247,1.0,0.873,0.25,u,1651,low_ff,617.115,zug_zog,false,true,true
mixed,1,248,0.806,1.0,1.0,o,1040,low_f0,618.655,ruhm_rom,true,true,true
mixed,1,249,1.0,0.873,0.75,u,1069,low_ff,620.23,fuhr_vor,false,true,true
mixed,1,250,1.0,1.146,0.5,o,749,high_ff,621.498,brut_brot,true,true,true
mixed,1,251,0.806,1.0,0.25,u,1219,low_f0,623.225,huhn_hohn,false,true,true
mixed,1,252,1.24,1.0,0.75,u,789,high_f0,624.521,ruhm_rom,false,true,true
mixed,1,253,1.0,1.146,0.75,o,691,high_ff,625.731,bug_bog,true,true,true
mixed,1,254,0.806,1.0,0.0,u,1149,low_f0,627.388,tut_tot,false,true,true
mixed,1,255,1.24,1.0,0.0,u,1029,high_f0,628.921,huhn_hohn,false,true,true
mixed,1,256,1.0,1.146,0.25,o,691,high_ff,630.12,tut_tot,true,true,true
mixed,1,257,0.806,1.0,0.75,o,2251,low_f0,632.889,schuh_show,true,true,true
mixed,1,258,1.0,0.873,0.75,u,779,low_ff,634.181,bug_bog,false,true,true
mixed,1,259,1.0,1.146,0.0,u,1160,high_ff,635.846,zug_zog,false,true,true
mixed,1,260,0.806,1.0,1.0,o,880,low_f0,637.233,fuhr_vor,true,true,true
mixed,1,261,1.0,1.146,0.0,u,709,high_ff,638.46,brut_brot,false,true,true
mixed,1,262,1.0,1.0,0.75,o,869,center,639.838,zug_zog,true,true,true
mixed,1,263,1.0,1.146,1.0,o,931,high_ff,641.291,huhn_hohn,true,true,true
mixed,1,264,0.806,1.0,1.0,o,779,low_f0,642.591,schuh_show,true,true,true
mixed,1,265,1.24,1.0,1.0,o,661,high_f0,643.761,tut_tot,true,true,true
mixed,1,266,1.0,1.146,0.25,o,989,high_ff,645.254,zug_zog,true,true,true
mixed,1,267,0.806,1.0,0.75,o,699,low_f0,646.471,ruhm_rom,true,true,true
mixed,1,268,1.0,0.873,0.75,o,691,low_ff,647.673,kur_chor,true,true,true
mixed,1,269,0.806,1.0,0.5,o,1349,low_f0,649.537,fuhr_vor,true,true,true
mixed,1,270,1.0,0.873,0.0,o,1080,low_ff,651.131,huhn_hohn,true,true,true
mixed,1,271,0.806,1.0,0.0,u,979,low_f0,652.63,schuh_show,false,true,true
mixed,1,272,1.24,1.0,0.5,u,1571,high_f0,654.72,ruhm_rom,false,true,true
mixed,1,273,1.0,1.0,0.25,u,1309,center,656.55,brut_brot,false,true,true
mixed,1,274,1.24,1.0,1.0,u,1400,high_f0,658.459,tut_tot,false,true,true
mixed,1,275,1.0,1.146,0.25,o,2309,high_ff,661.268,zug_zog,true,true,true
mixed,1,276,1.0,1.0,0.75,o,2032,center,663.812,fuhr_vor,true,true,true
mixed,1,277,1.0,1.146,0.5,o,1360,high_ff,665.68,bug_bog,true,true,true
mixed,1,278,1.24,1.0,0.75,u,1171,high_f0,667.358,huhn_hohn,false,true,true
mixed,1,279,1.0,1.0,0.75,u,840,center,668.707,fuhr_vor,false,true,true
mixed,1,280,0.806,1.0,0.25,o,1021,low_f0,670.235,tut_tot,true,true,true
mixed,1,281,1.24,1.0,0.5,u,1821,high_f0,672.568,schuh_show,false,true,true
mixed,1,282,0.806,1.0,0.25,u,909,low_f0,673.989,huhn_hohn,false,true,true
mixed,1,283,1.24,1.0,0.75,o,611,high_f0,675.111,bug_bog,true,true,true
mixed,1,284,1.0,1.146,0.5,u,520,high_ff,676.137,tut_tot,false,true,true
mixed,1,285,0.806,1.0,0.0,u,909,low_f0,677.559,kur_chor,false,true,true
mixed,1,286,1.0,1.0,0.25,o,771,center,678.826,ruhm_rom,true,true,true
mixed,1,287,1.24,1.0,1.0,u,840,high_f0,680.174,zug_zog,false,true,true
mixed,1,288,1.0,1.146,1.0,o,1229,high_ff,681.906,fuhr_vor,true,true,true
mixed,1,289,0.806,1.0,0.0,u,1101,low_f0,683.52,tut_tot,false,true,true
mixed,1,290,1.24,1.0,0.25,u,909,high_f0,684.944,brut_brot,false,true,true
mixed,1,291,1.0,0.873,0.25,u,1491,low_ff,686.944,fuhr_vor,false,true,true
mixed,1,292,1.24,1.0,0.5,u,731,high_f0,688.184,huhn_hohn,false,true,true
mixed,1,293,0.806,1.0,0.75,o,928,low_f0,689.62,schuh_show,true,true,true
mixed,1,294,1.24,1.0,0.75,o,880,high_f0,690.996,tut_tot,true,true,true
mixed,1,295,1.0,0.873,1.0,u,931,low_ff,692.434,bug_bog,false,true,true
mixed,1,296,1.24,1.0,0.25,u,1192,high_f0,694.129,brut_brot,false,true,true
mixed,1,297,1.0,1.146,0.25,u,2811,high_ff,697.443,ruhm_rom,false,true,true
mixed,1,298,0.806,1.0,0.5,o,1019,low_f0,698.976,tut_tot,true,true,true
mixed,1,299,1.0,1.146,1.0,o,1488,high_ff,700.976,zug_zog,true,true,true
mixed,1,300,1.0,1.0,0.75,u,1200,center,702.676,ruhm_rom,false,true,true
mixed,1,301,0.806,1.0,0.5,o,651,low_f0,703.841,tut_tot,true,true,true
mixed,1,302,1.0,1.146,0.5,o,941,high_ff,705.289,schuh_show,true,true,true
mixed,1,303,1.24,1.0,0.25,u,731,high_f0,706.528,kur_chor,false,true,true
mixed,1,304,0.806,1.0,0.75,o,659,low_f0,707.701,ruhm_rom,true,true,true
mixed,1,305,1.0,0.873,0.5,u,979,low_ff,709.186,tut_tot,false,true,true
mixed,1,306,1.24,1.0,0.5,u,1021,high_f0,710.715,brut_brot,false,true,true
mixed,1,307,1.0,0.873,1.0,o,1800,low_ff,713.029,kur_chor,true,true,true
mixed,1,308,0.806,1.0,0.0,o,2480,low_f0,716.019,bug_bog,true,true,true
mixed,1,309,1.0,0.873,0.25,u,1931,low_ff,718.449,fuhr_vor,false,true,true
mixed,1,310,1.24,1.0,0.0,u,1331,high_f0,720.288,brut_brot,false,true,true
mixed,1,311,0.806,1.0,0.75,o,1400,low_f0,722.184,zug_zog,true,true,true
mixed,1,312,1.0,0.873,0.0,u,80,low_ff,737.783,schuh_show,false,false,false
mixed,1,313,1.0,1.146,0.0,o,40,high_ff,738.343,fuhr_vor,true,false,false
mixed,1,314,1.0,0.873,0.5,u,371,low_ff,739.223,bug_bog,false,false,false
mixed,1,315,1.24,1.0,1.0,o,728,high_f0,740.458,kur_chor,true,true,true
mixed,1,316,0.806,1.0,0.25,u,112,low_f0,741.088,bug_bog,false,false,false
mixed,1,317,1.0,1.146,1.0,o,171,high_ff,741.769,fuhr_vor,true,false,false
mixed,1,318,1.0,1.0,0.25,u,251,center,742.523,tut_tot,false,false,false
mixed,1,319,1.0,1.146,0.25,o,789,high_ff,743.813,schuh_show,true,true,true
mixed,1,320,1.0,0.873,0.75,u,1499,low_ff,745.815,brut_brot,false,true,true
mixed,1,321,1.0,1.0,0.75,o,819,center,747.153,bug_bog,true,true,true
mixed,1,322,1.0,1.146,0.0,u,1131,high_ff,748.791,ruhm_rom,false,true,true
mixed,1,323,0.806,1.0,0.0,,,low_f0,754.317,zug_zog,,,false
mixed,1,324,1.0,1.146,0.5,o,2000,high_ff,757.828,huhn_hohn,true,true,true
mixed,1,325,1.0,0.873,0.5,u,832,low_ff,759.171,kur_chor,false,true,true
mixed,1,326,0.806,1.0,1.0,o,891,low_f0,760.568,brut_brot,true,true,true
mixed,1,327,1.0,1.0,0.75,u,1389,center,762.467,fuhr_vor,false,true,true
mixed,1,328,1.24,1.0,0.0,u,800,high_f0,763.779,zug_zog,false,true,true
mixed,1,329,0.806,1.0,0.75,o,699,low_f0,764.99,bug_bog,true,true,true
mixed,1,330,1.0,0.873,0.75,u,691,low_ff,766.203,zug_zog,false,true,true
mixed,1,331,1.0,1.146,0.5,o,749,high_ff,767.466,tut_tot,true,true,true
mixed,1,332,0.806,1.0,0.0,o,968,low_f0,768.935,fuhr_vor,true,true,true
mixed,1,333,1.0,0.873,0.75,u,939,low_ff,770.374,kur_chor,false,true,true
mixed,1,334,1.24,1.0,0.0,u,3968,high_f0,774.861,zug_zog,false,true,true
mixed,1,335,1.0,1.146,0.75,o,1261,high_ff,776.632,kur_chor,true,true,true
mixed,1,336,0.806,1.0,0.5,o,992,low_f0,778.129,huhn_hohn,true,true,true
mixed,1,337,1.0,1.146,0.5,u,720,high_ff,779.37,schuh_show,false,true,true
mixed,1,338,1.0,0.873,1.0,u,869,low_ff,780.75,zug_zog,false,true,true
mixed,1,339,1.0,1.0,0.5,u,811,center,782.066,brut_brot,false,true,true
mixed,1,340,1.24,1.0,0.0,u,720,high_f0,783.296,ruhm_rom,false,true,true
mixed,1,341,1.0,0.873,1.0,u,800,low_ff,784.612,fuhr_vor,false,true,true
mixed,1,342,1.0,1.146,1.0,o,928,high_ff,786.059,schuh_show,true,true,true
mixed,1,343,1.0,0.873,0.0,u,800,low_ff,787.376,brut_brot,false,true,true
mixed,1,344,0.806,1.0,0.25,o,851,low_f0,788.731,huhn_hohn,true,true,true
mixed,1,345,1.0,0.873,0.5,u,1200,low_ff,790.434,schuh_show,false,true,true
mixed,1,346,0.806,1.0,0.0,u,1080,low_f0,792.026,huhn_hohn,false,true,true
mixed,1,347,1.0,1.146,1.0,o,792,high_ff,793.332,fuhr_vor,true,true,true
mixed,1,348,1.24,1.0,0.75,u,899,high_f0,794.743,brut_brot,false,true,true
mixed,1,349,1.0,1.146,0.5,o,1000,high_ff,796.247,zug_zog,true,true,true
mixed,1,350,0.806,1.0,0.25,u,971,low_f0,797.726,fuhr_vor,false,true,true
mixed,1,351,1.0,0.873,0.5,u,1051,low_ff,799.289,ruhm_rom,false,true,true
mixed,1,352,0.806,1.0,0.0,o,800,low_f0,800.601,zug_zog,true,true,true
mixed,1,353,1.24,1.0,0.75,o,1000,high_f0,802.119,tut_tot,true,true,true
mixed,1,354,1.0,1.146,0.25,o,3221,high_ff,805.85,fuhr_vor,true,true,true
mixed,1,355,1.0,1.0,0.75,o,1789,center,808.15,zug_zog,true,true,true
mixed,1,356,0.806,1.0,0.75,o,800,low_f0,809.454,kur_chor,true,true,true
mixed,1,357,1.0,1.146,0.25,o,939,high_ff,810.903,schuh_show,true,true,true
mixed,1,358,0.806,1.0,1.0,o,848,low_f0,812.262,tut_tot,true,true,true
mixed,1,359,1.24,1.0,0.25,u,808,high_f0,813.575,ruhm_rom,false,true,true
mixed,1,360,1.0,1.0,0.5,o,1011,center,815.084,zug_zog,true,true,true
mixed,1,361,0.806,1.0,0.25,o,1331,low_f0,816.915,bug_bog,true,true,true
mixed,1,362,1.0,1.146,0.75,u,909,high_ff,818.34,kur_chor,false,true,true
mixed,1,363,1.24,1.0,0.5,o,2611,high_f0,821.472,brut_brot,true,true,true
mixed,1,364,1.0,0.873,0.0,u,1051,low_ff,823.038,zug_zog,false,true,true
mixed,1,365,1.24,1.0,1.0,o,960,high_f0,824.504,brut_brot,true,true,true
mixed,1,366,1.0,1.146,0.75,o,1069,high_ff,826.076,bug_bog,true,true,true
mixed,1,367,1.0,1.0,0.75,u,4411,center,830.994,huhn_hohn,false,true,true
mixed,1,368,1.24,1.0,0.5,u,1461,high_f0,832.96,tut_tot,false,true,true
mixed,1,369,0.806,1.0,1.0,o,1160,low_f0,834.626,schuh_show,true,true,true
mixed,1,370,1.0,1.146,0.75,o,1152,high_ff,836.291,ruhm_rom,true,true,true
mixed,1,371,1.0,0.873,0.25,u,1291,low_ff,838.09,tut_tot,false,true,true
mixed,1,372,1.24,1.0,0.25,u,1347,high_f0,839.943,zug_zog,false,true,true
mixed,1,373,1.0,1.146,0.0,o,1920,high_ff,842.377,brut_brot,true,true,true
mixed,1,374,1.0,0.873,0.25,u,1109,low_ff,843.983,ruhm_rom,false,true,true
mixed,1,375,0.806,1.0,1.0,o,1000,low_f0,845.492,schuh_show,true,true,true
mixed,1,376,1.24,1.0,1.0,o,640,high_f0,846.633,ruhm_rom,true,true,true
mixed,1,377,1.0,0.873,0.0,u,960,low_ff,848.104,fuhr_vor,false,true,true
mixed,1,378,0.806,1.0,0.75,o,832,low_f0,849.448,tut_tot,true,true,true
mixed,1,379,1.0,1.0,0.25,u,789,center,850.753,zug_zog,false,true,true
mixed,1,380,1.0,0.873,0.75,u,749,low_ff,852.019,brut_brot,false,true,true
mixed,1,381,1.0,1.146,0.5,o,501,high_ff,853.039,bug_bog,true,true,true
mixed,1,382,1.0,1.0,0.5,u,720,center,854.272,fuhr_vor,false,true,true
mixed,1,383,1.0,1.146,0.0,o,880,high_ff,855.671,huhn_hohn,true,true,true
mixed,1,384,1.24,1.0,0.5,u,1008,high_f0,857.179,zug_zog,false,true,true
mixed,1,385,1.0,0.873,0.0,u,731,low_ff,858.43,ruhm_rom,false,true,true
mixed,1,386,1.0,1.146,0.75,o,672,high_ff,859.606,brut_brot,true,true,true
mixed,1,387,0.806,1.0,0.75,o,789,low_f0,860.908,tut_tot,true,true,true
mixed,1,388,1.0,1.146,0.0,o,1152,high_ff,862.567,schuh_show,true,true,true
mixed,1,389,1.24,1.0,0.5,u,571,high_f0,863.642,zug_zog,false,true,true
mixed,1,390,1.0,0.873,0.75,u,491,low_ff,864.651,bug_bog,false,true,true
mixed,1,391,1.24,1.0,0.0,u,640,high_f0,865.805,zug_zog,false,true,true
mixed,1,392,1.0,1.0,0.5,o,651,center,866.965,huhn_hohn,true,true,true
mixed,1,393,1.0,0.873,0.25,u,541,low_ff,868.011,kur_chor,false,true,true
mixed,1,394,1.0,1.146,0.25,u,688,high_ff,869.217,schuh_show,false,true,true
mixed,1,395,0.806,1.0,1.0,u,589,low_f0,870.315,fuhr_vor,false,true,true
mixed,1,396,1.0,1.146,0.75,o,901,high_ff,871.725,brut_brot,true,true,true
mixed,1,397,1.0,1.0,0.25,u,1091,center,873.319,schuh_show,false,true,true
mixed,1,398,1.0,0.873,0.5,u,491,low_ff,874.32,kur_chor,false,true,true
mixed,1,399,0.806,1.0,0.5,o,741,low_f0,875.569,zug_zog,true,true,true
mixed,1,400,1.0,0.873,0.0,u,661,low_ff,876.725,bug_bog,false,true,true
mixed,1,401,1.24,1.0,0.75,u,720,high_f0,877.961,huhn_hohn,false,true,true
mixed,1,402,1.0,0.873,0.25,u,571,low_ff,879.037,bug_bog,false,true,true
mixed,1,403,1.24,1.0,0.75,u,592,high_f0,880.125,zug_zog,false,true,true
mixed,1,404,1.0,1.0,0.5,o,960,center,881.588,schuh_show,true,true,true
mixed,1,405,1.24,1.0,0.25,u,509,high_f0,882.6,bug_bog,false,true,true
mixed,1,406,0.806,1.0,0.75,o,861,low_f0,883.968,brut_brot,true,true,true
mixed,1,407,1.24,1.0,0.5,u,2509,high_f0,886.986,ruhm_rom,false,true,true
mixed,1,408,1.0,0.873,0.5,u,1931,low_ff,889.428,schuh_show,false,true,true
mixed,1,409,1.24,1.0,1.0,o,771,high_f0,890.706,tut_tot,true,true,true
mixed,1,410,1.0,1.146,0.25,o,1261,high_ff,892.478,bug_bog,true,true,true
mixed,1,411,0.806,1.0,0.75,o,1269,low_f0,894.258,huhn_hohn,true,true,true
mixed,1,412,1.24,1.0,0.0,u,680,high_f0,895.45,kur_chor,false,true,true
mixed,1,413,1.0,1.146,0.5,u,680,high_ff,896.633,fuhr_vor,false,true,true
mixed,1,414,1.0,0.873,0.25,u,891,low_ff,898.03,tut_tot,false,true,true
mixed,1,415,0.806,1.0,1.0,o,611,low_f0,914.156,huhn_hohn,true,true,true
mixed,1,416,1.0,1.146,0.0,u,531,high_ff,915.194,kur_chor,false,true,true
mixed,1,417,1.0,0.873,0.75,o,709,low_ff,916.415,fuhr_vor,true,true,true
mixed,1,418,1.24,1.0,0.75,u,1149,high_f0,918.068,schuh_show,false,true,true
mixed,1,419,1.0,0.873,0.75,u,549,low_ff,919.119,zug_zog,false,true,true
mixed,1,420,1.0,1.0,0.5,u,771,center,920.393,ruhm_rom,false,true,true
mixed,1,421,0.806,1.0,0.0,o,909,low_f0,921.819,brut_brot,true,true,true
mixed,1,422,1.0,1.146,0.25,u,672,high_ff,923.01,bug_bog,false,true,true
mixed,1,423,0.806,1.0,0.75,o,779,low_f0,924.3,fuhr_vor,true,true,true
mixed,1,424,1.24,1.0,0.5,u,968,high_f0,925.781,kur_chor,false,true,true
mixed,1,425,1.0,0.873,0.75,u,1869,low_ff,928.161,fuhr_vor,false,true,true
mixed,1,426,1.0,1.0,0.5,o,1080,center,929.747,brut_brot,true,true,true
mixed,1,427,1.24,1.0,1.0,o,781,high_f0,931.036,tut_tot,true,true,true
mixed,1,428,1.0,0.873,0.25,u,981,low_ff,932.519,kur_chor,false,true,true
mixed,1,429,1.0,1.0,0.5,o,3160,center,936.192,fuhr_vor,true,true,true
mixed,1,430,1.0,1.146,0.0,u,1480,high_ff,938.192,ruhm_rom,false,true,true
mixed,1,431,1.0,1.0,0.5,u,701,center,939.4,huhn_hohn,false,true,true
mixed,1,432,0.806,1.0,0.75,o,640,low_f0,940.545,ruhm_rom,true,true,true
mixed,1,433,1.0,1.0,0.75,o,920,center,941.975,zug_zog,true,true,true
mixed,1,434,1.24,1.0,0.25,u,939,high_f0,943.415,fuhr_vor,false,true,true
mixed,1,435,0.806,1.0,1.0,o,1128,low_f0,945.056,kur_chor,true,true,true
mixed,1,436,1.0,1.0,0.75,u,1048,center,946.615,tut_tot,false,true,true
mixed,1,437,0.806,1.0,0.25,o,1029,low_f0,948.159,bug_bog,true,true,true
mixed,1,438,1.24,1.0,0.25,u,952,high_f0,949.605,brut_brot,false,true,true
mixed,1,439,0.806,1.0,0.75,o,619,low_f0,950.733,bug_bog,true,true,true
mixed,1,440,1.0,0.873,1.0,u,939,low_ff,952.189,schuh_show,false,true,true
mixed,1,441,1.0,1.0,0.75,o,832,center,953.524,tut_tot,true,true,true
mixed,1,442,1.0,1.146,0.5,o,1120,high_ff,955.149,bug_bog,true,true,true
mixed,1,443,0.806,1.0,0.75,o,811,low_f0,956.466,zug_zog,true,true,true
mixed,1,444,1.0,1.146,0.0,o,891,high_ff,957.865,brut_brot,true,true,true
mixed,1,445,1.0,1.0,0.5,u,859,center,959.23,schuh_show,false,true,true
mixed,1,446,0.806,1.0,1.0,o,720,low_f0,960.453,zug_zog,true,true,true
mixed,1,447,1.0,1.0,0.5,o,1088,center,962.053,bug_bog,true,true,true
mixed,1,448,0.806,1.0,0.25,u,869,low_f0,963.435,ruhm_rom,false,true,true
mixed,1,449,1.24,1.0,1.0,o,880,high_f0,964.821,huhn_hohn,true,true,true
mixed,1,450,1.0,1.146,0.5,o,939,high_ff,966.27,kur_chor,true,true,true
mixed,1,451,0.806,1.0,0.5,o,829,low_f0,967.593,brut_brot,true,true,true
mixed,1,452,1.0,1.146,0.25,o,792,high_ff,968.884,zug_zog,true,true,true
mixed,1,453,1.24,1.0,1.0,o,899,high_f0,970.3,huhn_hohn,true,true,true
mixed,1,454,1.0,1.0,0.75,o,840,center,971.645,kur_chor,true,true,true
mixed,1,455,0.806,1.0,0.0,u,1091,low_f0,973.237,tut_tot,false,true,true
mixed,1,456,1.0,0.873,0.5,u,811,low_ff,974.545,bug_bog,false,true,true
mixed,1,457,1.0,1.146,0.75,o,781,high_ff,975.841,tut_tot,true,true,true
mixed,1,458,1.0,1.0,0.5,u,941,center,977.287,fuhr_vor,false,true,true
mixed,1,459,1.24,1.0,1.0,o,819,high_f0,978.613,brut_brot,true,true,true
mixed,1,460,1.0,1.146,1.0,o,2429,high_ff,981.561,tut_tot,true,true,true
mixed,1,461,1.0,0.873,0.75,u,760,low_ff,982.827,ruhm_rom,false,true,true
mixed,1,462,1.24,1.0,0.5,o,1360,high_f0,984.696,zug_zog,true,true,true
mixed,1,463,1.0,1.146,1.0,o,1779,high_ff,986.988,bug_bog,true,true,true
mixed,1,464,1.0,0.873,0.75,u,2011,low_ff,989.504,brut_brot,false,true,true
mixed,1,465,0.806,1.0,0.5,o,752,low_f0,990.77,tut_tot,true,true,true
mixed,1,466,1.0,0.873,0.5,u,779,low_ff,992.053,kur_chor,false,true,true
mixed,1,467,1.24,1.0,1.0,o,1139,high_f0,993.706,fuhr_vor,true,true,true
mixed,1,468,1.0,1.146,0.0,o,1579,high_ff,995.786,zug_zog,true,true,true
mixed,1,469,1.24,1.0,0.75,o,1200,high_f0,997.496,huhn_hohn,true,true,true
mixed,1,470,0.806,1.0,1.0,o,1211,low_f0,999.209,brut_brot,true,true,true
mixed,1,471,1.0,1.0,0.25,u,3419,center,1003.15,fuhr_vor,false,true,true
mixed,1,472,0.806,1.0,0.75,o,672,low_f0,1004.323,tut_tot,true,true,true
mixed,1,473,1.0,1.0,0.5,o,749,center,1005.574,zug_zog,true,true,true
mixed,1,474,1.24,1.0,0.0,u,829,high_f0,1006.904,fuhr_vor,false,true,true
mixed,1,475,1.0,0.873,0.25,u,821,low_ff,1008.234,bug_bog,false,true,true
mixed,1,476,1.24,1.0,0.0,u,731,high_f0,1009.465,tut_tot,false,true,true
mixed,1,477,1.0,0.873,0.25,u,779,low_ff,1010.751,huhn_hohn,false,true,true
mixed,1,478,1.0,1.146,0.75,o,1021,high_ff,1012.285,schuh_show,true,true,true
mixed,1,479,1.0,1.0,0.25,u,1061,center,1013.852,fuhr_vor,false,true,true
mixed,1,480,1.24,1.0,1.0,u,949,high_f0,1015.306,ruhm_rom,false,true,true
mixed,1,481,1.0,0.873,0.75,u,1352,low_ff,1017.171,schuh_show,false,true,true
mixed,1,482,1.0,1.146,0.0,u,760,high_ff,1018.451,tut_tot,false,true,true
mixed,1,483,1.24,1.0,0.25,u,619,high_f0,1019.573,ruhm_rom,false,true,true
mixed,1,484,1.0,0.873,0.5,o,669,low_ff,1020.745,fuhr_vor,true,true,true
mixed,1,485,1.0,1.146,0.75,o,1440,high_ff,1022.702,huhn_hohn,true,true,true
mixed,1,486,1.0,0.873,0.25,o,851,low_ff,1024.064,zug_zog,true,true,true
mixed,1,487,1.24,1.0,0.25,u,1221,high_f0,1025.793,kur_chor,false,true,true
mixed,1,488,1.0,1.0,0.5,o,701,center,1027.012,bug_bog,true,true,true
mixed,1,489,0.806,1.0,0.5,o,1179,low_f0,1028.692,brut_brot,true,true,true
mixed,1,490,1.0,1.146,0.0,u,971,high_ff,1030.166,ruhm_rom,false,true,true
mixed,1,491,1.0,0.873,0.5,u,1229,low_ff,1031.91,zug_zog,false,true,true
mixed,1,492,1.0,1.146,1.0,o,691,high_ff,1033.116,brut_brot,true,true,true
mixed,1,493,1.24,1.0,1.0,u,800,high_f0,1034.431,ruhm_rom,false,true,true
mixed,1,494,1.0,1.0,0.75,o,741,center,1035.684,bug_bog,true,true,true
mixed,1,495,1.24,1.0,0.25,u,661,high_f0,1036.843,schuh_show,false,true,true
mixed,1,496,0.806,1.0,0.5,o,829,low_f0,1038.185,huhn_hohn,true,true,true
mixed,1,497,1.0,1.0,0.25,u,781,center,1039.478,tut_tot,false,true,true
mixed,1,498,0.806,1.0,0.0,u,941,low_f0,1040.929,ruhm_rom,false,true,true
mixed,1,499,1.0,0.873,0.25,o,728,low_ff,1042.18,zug_zog,true,true,true
mixed,1,500,1.0,1.0,0.25,u,1880,center,1044.568,kur_chor,false,true,true
mixed,1,501,1.24,1.0,0.5,u,1291,high_f0,1046.366,schuh_show,false,true,true
mixed,1,502,0.806,1.0,0.5,o,861,low_f0,1047.731,zug_zog,true,true,true
mixed,1,503,1.24,1.0,0.75,u,709,high_f0,1048.949,bug_bog,false,true,true
mixed,1,504,1.0,0.873,1.0,u,741,low_ff,1050.193,tut_tot,false,true,true
mixed,1,505,1.0,1.146,0.25,o,632,high_ff,1051.331,kur_chor,true,true,true
mixed,1,506,1.24,1.0,0.75,u,971,high_f0,1052.81,ruhm_rom,false,true,true
mixed,1,507,1.0,0.873,0.75,o,1000,low_ff,1054.313,brut_brot,true,true,true
mixed,1,508,0.806,1.0,0.0,o,752,low_f0,1055.565,bug_bog,true,true,true
mixed,1,509,1.0,1.146,0.5,o,720,high_ff,1056.8,brut_brot,true,true,true
mixed,1,510,1.24,1.0,0.0,u,709,high_f0,1058.014,fuhr_vor,false,true,true
mixed,1,511,0.806,1.0,0.25,o,1339,low_f0,1059.867,schuh_show,true,true,true
mixed,1,512,1.24,1.0,1.0,o,800,high_f0,1061.189,bug_bog,true,true,true
mixed,1,513,1.0,1.0,0.75,o,832,center,1062.529,tut_tot,true,true,true
mixed,1,514,1.0,1.146,0.75,o,1469,high_ff,1064.518,huhn_hohn,true,true,true
mixed,1,515,1.0,0.873,0.75,u,589,low_ff,1065.622,bug_bog,false,true,true
mixed,1,516,1.0,1.0,0.5,o,861,center,1066.999,kur_chor,true,true,true
mixed,1,517,1.0,1.146,0.0,o,891,high_ff,1068.391,schuh_show,true,true,true
mixed,1,518,1.24,1.0,0.25,u,960,high_f0,1069.866,zug_zog,false,true,true
mixed,1,519,0.806,1.0,0.5,,,low_f0,1090.388,ruhm_rom,,,false
mixed,1,520,1.24,1.0,0.25,u,2088,high_f0,1093.982,kur_chor,false,true,true
mixed,1,521,0.806,1.0,0.0,o,2448,low_f0,1096.939,brut_brot,true,true,true
mixed,1,522,1.0,1.146,0.5,o,760,high_ff,1098.205,zug_zog,true,true,true
mixed,1,523,1.0,0.873,1.0,u,691,low_ff,1099.398,bug_bog,false,true,true
mixed,1,524,1.0,1.146,0.75,o,941,high_ff,1100.849,zug_zog,true,true,true
mixed,1,525,0.806,1.0,0.5,o,891,low_f0,1102.236,kur_chor,true,true,true
mixed,1,526,1.0,1.146,0.0,u,1360,high_ff,1104.107,schuh_show,false,true,true
mixed,1,527,1.0,1.0,0.25,u,1021,center,1105.635,fuhr_vor,false,true,true
mixed,1,528,1.0,1.146,0.0,u,1432,high_ff,1107.563,zug_zog,false,true,true
mixed,1,529,1.24,1.0,0.5,u,2080,high_f0,1110.151,bug_bog,false,true,true
mixed,1,530,1.0,0.873,0.0,u,640,low_ff,1111.305,kur_chor,false,true,true
mixed,1,531,1.0,1.0,0.5,u,872,center,1112.689,tut_tot,false,true,true
mixed,1,532,0.806,1.0,0.5,o,888,low_f0,1114.097,huhn_hohn,true,true,true
mixed,1,533,1.0,0.873,0.0,u,920,low_ff,1115.523,tut_tot,false,true,true
mixed,1,534,0.806,1.0,0.75,o,1160,low_f0,1117.186,fuhr_vor,true,true,true
mixed,1,535,1.0,1.146,1.0,o,1459,high_ff,1119.15,ruhm_rom,true,true,true
mixed,1,536,1.0,0.873,1.0,u,869,low_ff,1120.533,huhn_hohn,false,true,true
mixed,1,537,0.806,1.0,0.5,u,808,low_f0,1121.856,schuh_show,false,true,true
mixed,1,538,1.24,1.0,0.25,o,560,high_f0,1122.93,kur_chor,true,true,true
mixed,1,539,0.806,1.0,0.75,o,691,low_f0,1124.127,fuhr_vor,true,true,true
mixed,1,540,1.24,1.0,0.75,u,731,high_f0,1125.363,kur_chor,false,true,true
mixed,1,541,1.0,1.146,0.75,o,811,high_ff,1126.68,tut_tot,true,true,true
mixed,1,542,1.0,1.0,0.25,o,1371,center,1128.567,ruhm_rom,true,true,true
mixed,1,543,1.0,0.873,0.75,u,819,low_ff,1129.9,tut_tot,false,true,true
mixed,1,544,1.0,1.146,0.0,u,1141,high_ff,1131.556,bug_bog,false,true,true
mixed,1,545,1.24,1.0,0.0,o,909,high_f0,1132.98,schuh_show,true,true,true
mixed,1,546,1.0,1.146,0.0,o,1741,high_ff,1135.237,fuhr_vor,true,true,true
mixed,1,547,1.24,1.0,1.0,u,669,high_f0,1136.412,huhn_hohn,false,true,true
mixed,1,548,1.0,0.873,0.75,u,2440,low_ff,1139.363,schuh_show,false,true,true
mixed,1,549,1.24,1.0,0.0,u,4211,high_f0,1144.072,bug_bog,false,true,true
mixed,1,550,1.0,1.146,1.0,o,1520,high_ff,1146.096,kur_chor,true,true,true
mixed,1,551,0.806,1.0,0.5,u,3531,low_f0,1150.131,ruhm_rom,false,true,true
mixed,1,552,1.0,1.146,0.0,o,949,high_ff,1151.595,kur_chor,true,true,true
mixed,1,553,1.24,1.0,0.75,u,1040,high_f0,1153.135,schuh_show,false,true,true
mixed,1,554,1.0,0.873,0.0,u,779,low_ff,1154.417,kur_chor,false,true,true
mixed,1,555,0.806,1.0,0.25,o,1248,low_f0,1156.182,ruhm_rom,true,true,true
mixed,1,556,1.0,0.873,0.5,o,1240,low_ff,1157.928,brut_brot,true,true,true
mixed,1,557,1.0,1.146,0.0,u,629,high_ff,1159.071,huhn_hohn,false,true,true
mixed,1,558,1.24,1.0,0.25,u,752,high_f0,1160.328,tut_tot,false,true,true
mixed,1,559,0.806,1.0,1.0,o,800,low_f0,1161.636,bug_bog,true,true,true
mixed,1,560,1.0,0.873,0.0,u,1232,low_ff,1163.37,huhn_hohn,false,true,true
mixed,1,561,0.806,1.0,1.0,o,608,low_f0,1164.495,ruhm_rom,true,true,true
mixed,1,562,1.0,1.146,1.0,o,928,high_ff,1165.94,kur_chor,true,true,true
mixed,1,563,1.24,1.0,0.25,u,861,high_f0,1167.313,tut_tot,false,true,true
mixed,1,564,1.0,0.873,0.25,u,1781,low_ff,1169.608,brut_brot,false,true,true
mixed,1,565,1.0,1.146,0.25,u,1269,high_ff,1171.4,huhn_hohn,false,true,true
mixed,1,566,1.0,1.0,0.5,u,771,center,1172.675,ruhm_rom,false,true,true
mixed,1,567,1.24,1.0,0.25,u,832,high_f0,1174.011,zug_zog,false,true,true
mixed,1,568,1.0,0.873,0.25,u,800,low_ff,1175.312,fuhr_vor,false,true,true
mixed,1,569,0.806,1.0,0.25,u,632,low_f0,1176.445,zug_zog,false,true,true
mixed,1,570,1.0,1.0,0.75,u,1299,center,1178.252,ruhm_rom,false,true,true
mixed,1,571,1.24,1.0,1.0,u,931,high_f0,1179.685,schuh_show,false,true,true
mixed,1,572,1.0,1.146,0.5,u,789,high_ff,1180.986,ruhm_rom,false,true,true
mixed,1,573,1.24,1.0,1.0,u,960,high_f0,1182.456,bug_bog,false,true,true
mixed,1,574,1.0,0.873,0.25,u,1120,low_ff,1184.073,tut_tot,false,true,true
mixed,1,575,0.806,1.0,0.25,o,789,low_f0,1185.372,brut_brot,true,true,true
mixed,1,576,1.24,1.0,0.75,u,949,high_f0,1186.832,tut_tot,false,true,true
mixed,1,577,1.0,1.0,0.75,o,1011,center,1188.355,kur_chor,true,true,true
mixed,1,578,1.0,0.873,0.75,u,1101,low_ff,1189.968,schuh_show,false,true,true
mixed,1,579,0.806,1.0,0.5,o,1419,low_f0,1191.899,fuhr_vor,true,true,true
mixed,1,580,1.24,1.0,0.25,u,800,high_f0,1193.211,zug_zog,false,true,true
mixed,1,581,1.0,1.0,0.25,u,899,center,1194.63,bug_bog,false,true,true
mixed,1,582,1.24,1.0,0.25,u,709,high_f0,1195.857,huhn_hohn,false,true,true
mixed,1,583,1.0,1.146,0.5,u,1320,high_ff,1197.69,schuh_show,false,true,true
mixed,1,584,1.0,0.873,1.0,u,699,low_ff,1198.897,brut_brot,false,true,true
mixed,1,585,1.24,1.0,0.0,u,1619,high_f0,1201.023,huhn_hohn,false,true,true
mixed,1,586,0.806,1.0,0.25,o,661,low_f0,1202.201,brut_brot,true,true,true
mixed,1,587,1.0,0.873,0.5,u,1731,low_ff,1204.445,schuh_show,false,true,true
mixed,1,588,1.24,1.0,1.0,u,2480,high_f0,1207.438,fuhr_vor,false,true,true
mixed,1,589,0.806,1.0,1.0,u,2349,low_f0,1210.298,huhn_hohn,false,true,true
mixed,1,590,1.0,0.873,0.0,u,1080,low_ff,1211.875,ruhm_rom,false,true,true
mixed,1,591,1.0,1.146,1.0,o,760,high_ff,1213.152,kur_chor,true,true,true
mixed,1,592,1.0,1.0,0.25,u,1101,center,1214.762,brut_brot,false,true,true
mixed,1,593,1.0,1.146,0.75,o,760,high_ff,1216.033,ruhm_rom,true,true,true
mixed,1,594,1.0,0.873,1.0,o,941,low_ff,1217.481,kur_chor,true,true,true
mixed,1,595,0.806,1.0,0.0,u,1211,low_f0,1219.211,zug_zog,false,true,true
mixed,1,596,1.0,0.873,0.25,o,899,low_ff,1220.627,kur_chor,true,true,true
mixed,1,597,1.0,1.146,0.75,o,1080,high_ff,1222.217,bug_bog,true,true,true
mixed,1,598,0.806,1.0,0.75,u,888,low_f0,1223.616,zug_zog,false,true,true
mixed,1,599,1.0,0.873,0.75,u,1339,low_ff,1225.456,tut_tot,false,true,true
mixed,1,600,0.806,1.0,0.25,u,1629,low_f0,1227.585,ruhm_rom,false,true,true
mixed,1,601,1.24,1.0,0.0,u,1312,high_f0,1229.411,zug_zog,false,true,true
mixed,1,602,0.806,1.0,0.25,u,1451,low_f0,1231.368,schuh_show,false,true,true
mixed,1,603,1.24,1.0,0.0,u,1381,high_f0,1233.249,brut_brot,false,true,true
mixed,1,604,1.0,1.146,0.75,o,648,high_ff,1234.418,kur_chor,true,true,true
mixed,1,605,1.24,1.0,0.5,u,899,high_f0,1235.825,brut_brot,false,true,true
mixed,1,606,1.0,0.873,1.0,u,1400,low_ff,1237.725,fuhr_vor,false,true,true
mixed,1,607,0.806,1.0,0.5,o,749,low_f0,1238.982,huhn_hohn,true,true,true
mixed,1,608,1.24,1.0,0.75,u,1469,high_f0,1240.963,bug_bog,false,true,true
mixed,1,609,0.806,1.0,1.0,u,1619,low_f0,1243.099,zug_zog,false,true,true
mixed,1,610,1.0,1.146,0.5,o,1528,high_ff,1245.138,tut_tot,true,true,true
mixed,1,611,1.0,0.873,1.0,u,819,low_ff,1246.468,ruhm_rom,false,true,true
mixed,1,612,1.0,1.0,0.75,u,779,center,1247.75,tut_tot,false,true,true
mixed,1,613,1.0,1.146,1.0,o,861,high_ff,1249.116,fuhr_vor,true,true,true
mixed,1,614,1.0,0.873,0.25,u,1181,low_ff,1250.803,schuh_show,false,true,true
mixed,1,615,1.24,1.0,1.0,o,669,high_f0,1251.983,bug_bog,true,true,true
mixed,1,616,1.0,0.873,0.25,u,931,low_ff,1253.426,schuh_show,false,true,true
mixed,1,617,1.0,1.146,1.0,o,648,high_ff,1254.576,tut_tot,true,true,true
mixed,1,618,1.0,0.873,0.0,u,1099,low_ff,1256.186,huhn_hohn,false,true,true
mixed,1,619,1.0,1.146,0.0,u,1051,high_ff,1257.751,fuhr_vor,false,true,true
mixed,1,620,1.0,0.873,0.25,o,811,low_ff,1259.07,schuh_show,true,true,true
mixed,1,621,1.0,1.146,0.25,o,861,high_ff,1260.432,ruhm_rom,true,true,true
mixed,1,622,1.0,1.0,0.75,o,829,center,1276.782,brut_brot,true,true,true
mixed,1,623,1.0,1.146,1.0,o,720,high_ff,1278.008,tut_tot,true,true,true
mixed,1,624,1.0,0.873,0.0,u,909,low_ff,1279.43,brut_brot,false,true,true
mixed,1,625,1.24,1.0,0.75,u,811,high_f0,1280.76,huhn_hohn,false,true,true
mixed,1,626,1.0,1.146,0.75,o,1101,high_ff,1282.366,ruhm_rom,true,true,true
mixed,1,627,0.806,1.0,0.75,o,1200,low_f0,1284.07,schuh_show,true,true,true
mixed,1,628,1.24,1.0,1.0,o,1101,high_f0,1285.687,zug_zog,true,true,true
mixed,1,629,1.0,1.146,0.75,u,779,high_ff,1286.98,fuhr_vor,false,true,true
mixed,1,630,1.0,0.873,0.5,u,1269,low_ff,1288.754,ruhm_rom,false,true,true
mixed,1,631,0.806,1.0,0.5,o,811,low_f0,1290.065,kur_chor,true,true,true
mixed,1,632,1.0,0.873,0.25,u,1731,low_ff,1292.304,tut_tot,false,true,true
mixed,1,633,1.0,1.0,0.25,u,1280,center,1294.101,fuhr_vor,false,true,true
mixed,1,634,1.24,1.0,0.5,u,2560,high_f0,1297.17,zug_zog,false,true,true
mixed,1,635,1.0,0.873,1.0,o,1709,low_ff,1299.383,bug_bog,true,true,true
mixed,1,636,1.0,1.146,1.0,o,1229,high_ff,1301.115,schuh_show,true,true,true
mixed,1,637,1.24,1.0,0.5,u,891,high_f0,1302.519,bug_bog,false,true,true
mixed,1,638,0.806,1.0,0.25,u,3419,low_f0,1306.454,brut_brot,false,true,true
mixed,1,639,1.24,1.0,1.0,o,1248,high_f0,1308.215,bug_bog,true,true,true
mixed,1,640,1.0,0.873,1.0,u,749,low_ff,1309.481,zug_zog,false,true,true
mixed,1,641,1.0,1.0,0.5,u,1541,center,1311.527,kur_chor,false,true,true
mixed,1,642,1.0,1.146,0.25,u,1040,high_ff,1313.072,ruhm_rom,false,true,true
mixed,1,643,1.24,1.0,0.25,u,1451,high_f0,1315.029,bug_bog,false,true,true
mixed,1,644,1.0,0.873,0.5,u,941,low_ff,1316.478,tut_tot,false,true,true
mixed,1,645,1.0,1.146,0.5,u,829,high_ff,1317.828,ruhm_rom,false,true,true
mixed,1,646,0.806,1.0,0.0,o,800,low_f0,1319.13,brut_brot,true,true,true
mixed,1,647,1.0,1.0,0.5,u,891,center,1320.523,huhn_hohn,false,true,true
mixed,1,648,1.0,0.873,0.0,u,819,low_ff,1321.859,schuh_show,false,true,true
mixed,1,649,0.806,1.0,0.0,u,1189,low_f0,1323.556,huhn_hohn,false,true,true
mixed,1,650,1.0,0.873,0.0,u,1331,low_ff,1325.397,ruhm_rom,false,true,true
mixed,1,651,1.0,1.146,0.75,o,971,high_ff,1326.885,kur_chor,true,true,true
mixed,1,652,1.0,1.0,0.25,u,781,center,1328.168,huhn_hohn,false,true,true
mixed,1,653,1.24,1.0,0.75,u,1288,high_f0,1329.976,brut_brot,false,true,true
mixed,1,654,1.0,0.873,0.0,u,1469,low_ff,1331.954,tut_tot,false,true,true
mixed,1,655,0.806,1.0,0.0,u,872,low_f0,1333.323,ruhm_rom,false,true,true
mixed,1,656,1.0,1.0,0.25,u,709,center,1334.54,zug_zog,false,true,true
mixed,1,657,1.0,0.873,0.25,u,659,low_ff,1335.705,huhn_hohn,false,true,true
mixed,1,658,1.0,1.146,0.75,o,789,high_ff,1336.992,tut_tot,true,true,true
mixed,1,659,1.24,1.0,0.25,u,661,high_f0,1338.161,huhn_hohn,false,true,true
mixed,1,660,1.0,0.873,0.25,u,880,low_ff,1339.545,schuh_show,false,true,true
mixed,1,661,1.24,1.0,0.75,u,720,high_f0,1340.765,brut_brot,false,true,true
mixed,1,662,1.0,0.873,0.25,u,1011,low_ff,1342.294,ruhm_rom,false,true,true
mixed,1,663,1.0,1.0,0.25,u,1200,center,1343.995,schuh_show,false,true,true
mixed,1,664,0.806,1.0,0.0,u,1360,low_f0,1345.864,huhn_hohn,false,true,true
mixed,1,665,1.0,1.146,0.5,o,1131,high_ff,1347.498,zug_zog,true,true,true
mixed,1,666,1.24,1.0,1.0,o,1891,high_f0,1349.908,fuhr_vor,true,true,true
mixed,1,667,1.0,1.0,0.75,o,1120,center,1351.547,bug_bog,true,true,true
mixed,1,668,1.0,1.146,0.0,o,1301,high_ff,1353.357,brut_brot,true,true,true
mixed,1,669,1.0,0.873,0.0,u,909,low_ff,1354.768,tut_tot,false,true,true
mixed,1,670,1.24,1.0,0.0,o,1789,high_f0,1357.071,schuh_show,true,true,true
mixed,1,671,1.0,0.873,0.75,u,981,low_ff,1358.557,ruhm_rom,false,true,true
mixed,1,672,0.806,1.0,0.5,o,680,low_f0,1359.747,bug_bog,true,true,true
mixed,1,673,1.0,1.0,0.75,u,739,center,1361.005,ruhm_rom,false,true,true
mixed,1,674,0.806,1.0,0.5,o,1259,low_f0,1362.776,kur_chor,true,true,true
mixed,1,675,1.0,0.873,0.0,u,1221,low_ff,1364.503,huhn_hohn,false,true,true
mixed,1,676,1.0,1.146,0.25,u,1411,high_ff,1366.414,fuhr_vor,false,true,true
mixed,1,677,0.806,1.0,0.5,o,811,low_f0,1367.738,bug_bog,true,true,true
mixed,1,678,1.0,1.0,0.25,u,781,center,1369.031,huhn_hohn,false,true,true
mixed,1,679,0.806,1.0,0.0,u,2000,low_f0,1371.545,schuh_show,false,true,true
mixed,1,680,1.24,1.0,0.0,u,1131,high_f0,1373.183,tut_tot,false,true,true
mixed,1,681,1.0,0.873,1.0,o,1040,low_ff,1374.734,schuh_show,true,true,true
mixed,1,682,1.0,1.146,0.5,o,1221,high_ff,1376.47,kur_chor,true,true,true
mixed,1,683,0.806,1.0,0.75,o,1480,low_f0,1378.461,brut_brot,true,true,true
mixed,1,684,1.0,1.146,0.25,o,1581,high_ff,1380.558,fuhr_vor,true,true,true
mixed,1,685,1.24,1.0,0.25,u,720,high_f0,1381.776,schuh_show,false,true,true
mixed,1,686,0.806,1.0,1.0,o,1251,low_f0,1383.536,bug_bog,true,true,true
mixed,1,687,1.0,0.873,0.75,u,971,low_ff,1385.02,fuhr_vor,false,true,true
mixed,1,688,1.24,1.0,0.25,u,1021,high_f0,1386.543,tut_tot,false,true,true
mixed,1,689,1.0,1.146,0.25,u,789,high_ff,1387.85,kur_chor,false,true,true
mixed,1,690,0.806,1.0,1.0,o,920,low_f0,1389.292,tut_tot,true,true,true
mixed,1,691,1.0,1.0,0.75,o,1120,center,1390.919,brut_brot,true,true,true
mixed,1,692,0.806,1.0,0.25,o,789,low_f0,1392.216,tut_tot,true,true,true
mixed,1,693,1.24,1.0,0.75,u,1029,high_f0,1393.75,fuhr_vor,false,true,true
mixed,1,694,1.0,0.873,0.5,u,1040,low_ff,1395.298,bug_bog,false,true,true
mixed,1,695,1.24,1.0,0.75,u,1259,high_f0,1397.056,ruhm_rom,false,true,true
mixed,1,696,1.0,1.146,0.75,o,1291,high_ff,1398.853,huhn_hohn,true,true,true
mixed,1,697,0.806,1.0,0.75,o,1069,low_f0,1400.423,zug_zog,true,true,true
mixed,1,698,1.0,1.0,0.75,o,1051,center,1401.972,schuh_show,true,true,true
mixed,1,699,1.0,1.146,0.25,u,611,high_ff,1403.097,huhn_hohn,false,true,true
mixed,1,700,0.806,1.0,0.75,o,952,low_f0,1404.561,kur_chor,true,true,true
mixed,1,701,1.0,0.873,0.75,u,848,low_ff,1405.926,huhn_hohn,false,true,true
mixed,1,702,1.0,1.146,1.0,o,920,high_ff,1407.351,zug_zog,true,true,true
mixed,1,703,1.0,1.0,0.5,u,1109,center,1408.97,bug_bog,false,true,true
mixed,1,704,1.0,1.146,1.0,o,920,high_ff,1410.396,ruhm_rom,true,true,true
mixed,1,705,1.0,0.873,0.5,u,891,low_ff,1411.797,huhn_hohn,false,true,true
mixed,1,706,0.806,1.0,1.0,o,960,low_f0,1413.265,kur_chor,true,true,true
mixed,1,707,1.0,1.146,1.0,o,1240,high_ff,1415.022,zug_zog,true,true,true
mixed,1,708,0.806,1.0,0.75,o,1520,low_f0,1417.058,ruhm_rom,true,true,true
mixed,1,709,1.0,0.873,0.5,u,1272,low_ff,1418.839,zug_zog,false,true,true
mixed,1,710,1.0,1.146,0.5,o,4920,high_ff,1424.269,kur_chor,true,true,true
mixed,1,711,1.0,1.0,0.5,o,989,center,1425.767,tut_tot,true,true,true
mixed,1,712,1.0,0.873,0.5,u,979,low_ff,1427.257,zug_zog,false,true,true
mixed,1,713,0.806,1.0,0.0,u,821,low_f0,1428.584,tut_tot,false,true,true
mixed,1,714,1.0,1.146,0.5,o,1568,high_ff,1430.685,ruhm_rom,true,true,true
mixed,1,715,1.0,0.873,0.0,u,648,low_ff,1431.848,zug_zog,false,true,true
mixed,1,716,1.0,1.0,0.5,o,1251,center,1433.615,schuh_show,true,true,true
mixed,1,717,1.0,0.873,1.0,o,939,low_ff,1435.057,kur_chor,true,true,true
mixed,1,718,1.24,1.0,0.0,u,861,high_f0,1436.429,bug_bog,false,true,true
mixed,1,719,1.0,1.0,0.25,u,1600,center,1438.536,kur_chor,false,true,true
mixed,1,720,0.806,1.0,0.5,o,869,low_f0,1439.931,ruhm_rom,true,true,true
mixed,1,721,1.24,1.0,0.5,u,672,high_f0,1441.118,bug_bog,false,true,true
mixed,1,722,1.0,1.146,0.5,o,1229,high_ff,1442.852,schuh_show,true,true,true
mixed,1,723,1.24,1.0,0.5,u,899,high_f0,1444.258,ruhm_rom,false,true,true
mixed,1,724,0.806,1.0,0.25,o,709,low_f0,1445.491,kur_chor,true,true,true
mixed,1,725,1.0,0.873,1.0,o,1440,low_ff,1447.452,huhn_hohn,true,true,true
mixed,1,726,0.806,1.0,0.25,o,1011,low_f0,1463.991,tut_tot,true,true,true
mixed,1,727,1.0,0.873,0.25,u,789,low_ff,1465.299,fuhr_vor,false,true,true
mixed,1,728,1.24,1.0,0.75,o,720,high_f0,1466.529,zug_zog,true,true,true
mixed,1,729,1.0,0.873,0.0,u,1211,low_ff,1468.24,bug_bog,false,true,true
mixed,1,730,1.0,1.0,0.5,o,960,center,1469.708,schuh_show,true,true,true
mixed,1,731,1.0,0.873,0.0,u,760,low_ff,1470.967,ruhm_rom,false,true,true
mixed,1,732,1.0,1.0,0.75,o,760,center,1472.236,bug_bog,true,true,true
mixed,1,733,0.806,1.0,0.0,o,819,low_f0,1473.567,brut_brot,true,true,true
mixed,1,734,1.0,0.873,1.0,u,808,low_ff,1474.882,ruhm_rom,false,true,true
mixed,1,735,1.0,1.146,0.75,o,949,high_ff,1476.35,schuh_show,true,true,true
mixed,1,736,0.806,1.0,0.0,u,891,low_f0,1477.751,fuhr_vor,false,true,true
mixed,1,737,1.0,0.873,0.0,u,709,low_ff,1478.974,kur_chor,false,true,true
mixed,1,738,1.0,1.146,0.5,o,720,high_ff,1480.196,tut_tot,true,true,true
mixed,1,739,1.0,0.873,0.75,u,920,low_ff,1481.62,huhn_hohn,false,true,true
mixed,1,740,1.24,1.0,0.25,u,1331,high_f0,1483.461,schuh_show,false,true,true
mixed,1,741,0.806,1.0,0.5,o,1611,low_f0,1485.575,fuhr_vor,true,true,true
mixed,1,742,1.0,0.873,0.25,u,869,low_ff,1486.947,huhn_hohn,false,true,true
mixed,1,743,1.0,1.146,0.25,o,781,high_ff,1488.24,tut_tot,true,true,true
mixed,1,744,1.0,0.873,0.0,u,731,low_ff,1489.475,bug_bog,false,true,true
mixed,1,745,1.24,1.0,0.5,u,669,high_f0,1490.655,kur_chor,false,true,true
mixed,1,746,0.806,1.0,0.75,o,768,low_f0,1491.925,fuhr_vor,true,true,true
mixed,1,747,1.0,1.0,0.25,u,680,center,1493.119,huhn_hohn,false,true,true
mixed,1,748,1.0,0.873,0.5,u,859,low_ff,1494.486,fuhr_vor,false,true,true
mixed,1,749,0.806,1.0,0.75,o,1320,low_f0,1496.307,brut_brot,true,true,true
mixed,1,750,1.0,1.146,0.5,o,960,high_ff,1497.79,huhn_hohn,true,true,true
mixed,1,751,1.24,1.0,0.25,u,891,high_f0,1499.191,fuhr_vor,false,true,true
mixed,1,752,1.0,1.146,1.0,o,1331,high_ff,1501.035,zug_zog,true,true,true
mixed,1,753,1.0,0.873,0.5,u,611,low_ff,1502.156,bug_bog,false,true,true
mixed,1,754,1.24,1.0,0.25,u,1760,high_f0,1504.415,huhn_hohn,false,true,true
mixed,1,755,1.0,0.873,1.0,u,1560,low_ff,1506.474,fuhr_vor,false,true,true
mixed,1,756,1.0,1.0,0.75,o,760,center,1507.749,brut_brot,true,true,true
mixed,1,757,1.24,1.0,0.5,u,1541,high_f0,1509.793,kur_chor,false,true,true
mixed,1,758,1.0,1.146,1.0,o,821,high_ff,1511.119,ruhm_rom,true,true,true
mixed,1,759,0.806,1.0,0.25,o,1051,low_f0,1512.679,schuh_show,true,true,true
mixed,1,760,1.24,1.0,0.25,u,659,high_f0,1513.847,bug_bog,false,true,true
mixed,1,761,1.0,0.873,0.5,o,819,low_ff,1515.171,brut_brot,true,true,true
mixed,1,762,1.0,1.0,0.5,o,2109,center,1517.789,kur_chor,true,true,true
mixed,1,763,1.0,1.146,0.25,o,779,high_ff,1519.082,brut_brot,true,true,true
mixed,1,764,1.0,0.873,1.0,o,1019,low_ff,1520.608,zug_zog,true,true,true
mixed,1,765,0.806,1.0,0.75,o,851,low_f0,1521.976,brut_brot,true,true,true
mixed,1,766,1.24,1.0,0.75,u,949,high_f0,1523.43,fuhr_vor,false,true,true
mixed,1,767,1.0,0.873,0.75,u,789,low_ff,1524.74,tut_tot,false,true,true
mixed,1,768,1.0,1.146,0.0,o,800,high_ff,1526.054,huhn_hohn,true,true,true
mixed,1,769,1.24,1.0,0.75,o,1299,high_f0,1527.86,schuh_show,true,true,true
mixed,1,770,1.0,1.146,0.5,o,1821,high_ff,1530.187,fuhr_vor,true,true,true
mixed,1,771,1.0,0.873,0.25,u,949,low_ff,1531.66,bug_bog,false,true,true
mixed,1,772,1.24,1.0,0.25,u,992,high_f0,1533.153,brut_brot,false,true,true
mixed,1,773,0.806,1.0,0.25,u,2040,low_f0,1535.695,fuhr_vor,false,true,true
mixed,1,774,1.0,1.0,0.5,o,720,center,1536.917,brut_brot,true,true,true
mixed,1,775,1.24,1.0,0.5,u,699,high_f0,1538.13,tut_tot,false,true,true
mixed,1,776,1.0,1.146,0.75,o,861,high_ff,1539.504,brut_brot,true,true,true
mixed,1,777,1.0,1.0,0.5,u,741,center,1540.75,tut_tot,false,true,true
mixed,1,778,1.0,0.873,0.0,u,861,low_ff,1542.12,bug_bog,false,true,true
mixed,1,779,1.0,1.146,0.5,o,859,high_ff,1543.488,huhn_hohn,true,true,true
mixed,1,780,0.806,1.0,0.25,o,1019,low_f0,1545.019,zug_zog,true,true,true
mixed,1,781,1.0,1.0,0.25,u,1011,center,1546.551,schuh_show,false,true,true
mixed,1,782,1.0,1.146,0.5,o,2189,high_ff,1549.261,kur_chor,true,true,true
mixed,1,783,0.806,1.0,0.5,o,1669,low_f0,1551.447,tut_tot,true,true,true
mixed,1,784,1.0,1.146,0.75,u,771,high_ff,1552.741,bug_bog,false,true,true
mixed,1,785,1.24,1.0,0.75,u,1491,high_f0,1554.75,schuh_show,false,true,true
mixed,1,786,1.0,1.146,1.0,o,821,high_ff,1556.077,huhn_hohn,true,true,true
mixed,1,787,0.806,1.0,0.0,u,1368,low_f0,1557.967,kur_chor,false,true,true
mixed,1,788,1.24,1.0,0.0,u,869,high_f0,1559.342,bug_bog,false,true,true
mixed,1,789,1.0,0.873,1.0,u,1011,low_ff,1560.866,schuh_show,false,true,true
mixed,1,790,1.0,1.146,0.75,o,1109,high_ff,1562.488,zug_zog,true,true,true
mixed,1,791,1.24,1.0,0.5,u,859,high_f0,1563.855,ruhm_rom,false,true,true
mixed,1,792,0.806,1.0,0.75,o,800,low_f0,1565.159,huhn_hohn,true,true,true
mixed,1,793,1.24,1.0,0.75,o,1709,high_f0,1567.377,kur_chor,true,true,true
mixed,1,794,1.0,1.146,0.0,u,901,high_ff,1568.786,tut_tot,false,true,true
mixed,1,795,0.806,1.0,0.0,u,1131,low_f0,1570.414,kur_chor,false,true,true
mixed,1,796,1.24,1.0,0.25,u,2051,high_f0,1572.972,schuh_show,false,true,true
mixed,1,797,1.0,1.146,0.5,o,1232,high_ff,1574.712,fuhr_vor,true,true,true
mixed,1,798,1.0,0.873,0.5,u,811,low_ff,1576.033,brut_brot,false,true,true
mixed,1,799,0.806,1.0,0.25,o,2349,low_f0,1578.882,kur_chor,true,true,true
mixed,1,800,1.0,1.146,0.75,o,2229,high_ff,1581.631,fuhr_vor,true,true,true
mixed,1,801,1.24,1.0,0.75,o,1840,high_f0,1583.98,zug_zog,true,true,true
mixed,1,802,1.0,1.146,0.0,u,1051,high_ff,1585.541,tut_tot,false,true,true
mixed,1,803,0.806,1.0,0.0,o,869,low_f0,1586.926,bug_bog,true,true,true
mixed,1,804,1.0,1.0,0.5,u,1051,center,1588.481,ruhm_rom,false,true,true
mixed,1,805,1.24,1.0,0.75,u,691,high_f0,1589.674,tut_tot,false,true,true
mixed,1,806,1.0,0.873,1.0,o,901,low_ff,1591.073,brut_brot,true,true,true
mixed,1,807,0.806,1.0,1.0,u,861,low_f0,1592.433,tut_tot,false,true,true
mixed,1,808,1.24,1.0,0.0,u,2259,high_f0,1595.208,kur_chor,false,true,true
mixed,1,809,1.0,1.0,0.5,u,848,center,1596.567,ruhm_rom,false,true,true
mixed,1,810,1.0,0.873,0.25,u,789,low_ff,1597.861,brut_brot,false,true,true
mixed,1,811,1.24,1.0,0.75,u,901,high_f0,1599.272,ruhm_rom,false,true,true
mixed,1,812,0.806,1.0,0.75,o,939,low_f0,1600.731,huhn_hohn,true,true,true
mixed,1,813,1.24,1.0,0.0,u,909,high_f0,1602.148,ruhm_rom,false,true,true
mixed,1,814,1.0,1.0,0.5,u,1349,center,1604.011,tut_tot,false,true,true
mixed,1,815,1.0,1.146,0.25,o,811,high_ff,1605.338,huhn_hohn,true,true,true
mixed,1,816,1.0,0.873,1.0,o,869,low_ff,1606.721,kur_chor,true,true,true
mixed,1,817,1.0,1.146,0.5,o,819,high_ff,1608.046,brut_brot,true,true,true
mixed,1,818,1.24,1.0,0.0,u,1000,high_f0,1609.551,bug_bog,false,true,true
mixed,1,819,1.0,1.0,0.25,u,829,center,1610.896,brut_brot,false,true,true
mixed,1,820,1.0,0.873,1.0,u,960,low_ff,1612.357,schuh_show,false,true,true
mixed,1,821,1.24,1.0,1.0,u,1171,high_f0,1614.047,ruhm_rom,false,true,true
mixed,1,822,1.0,1.0,0.25,u,960,center,1615.513,bug_bog,false,true,true
mixed,1,823,1.0,1.146,0.5,o,1349,high_ff,1617.373,zug_zog,true,true,true
mixed,1,824,1.0,0.873,0.25,u,971,low_ff,1618.849,ruhm_rom,false,true,true
mixed,1,825,1.24,1.0,0.75,u,712,high_f0,1620.066,bug_bog,false,true,true
mixed,1,826,0.806,1.0,0.5,o,1059,low_f0,1621.633,schuh_show,true,true,true
mixed,1,827,1.24,1.0,1.0,o,2349,high_f0,1624.487,fuhr_vor,true,true,true
mixed,1,828,1.0,1.146,0.25,o,789,high_ff,1625.782,kur_chor,true,true,true
mixed,2,1,1.0,0.873,0.75,u,1859,low_ff,250.333,tut_tot,false,true,true
mixed,2,2,1.24,1.0,0.25,o,1352,high_f0,252.189,schuh_show,true,true,true
mixed,2,3,0.806,1.0,0.75,o,1149,low_f0,253.861,bug_bog,true,true,true
mixed,2,4,1.0,0.873,0.5,u,949,low_ff,255.333,tut_tot,false,true,true
mixed,2,5,0.806,1.0,1.0,o,1061,low_f0,256.908,fuhr_vor,true,true,true
mixed,2,6,1.0,1.146,1.0,o,1101,high_ff,258.509,zug_zog,true,true,true
mixed,2,7,1.0,0.873,0.75,u,939,low_ff,259.956,bug_bog,false,true,true
mixed,2,8,1.0,1.146,0.5,u,1040,high_ff,261.509,tut_tot,false,true,true
mixed,2,9,1.24,1.0,0.0,u,931,high_f0,262.941,kur_chor,false,true,true
mixed,2,10,1.0,1.0,0.75,o,869,center,264.316,zug_zog,true,true,true
mixed,2,11,0.806,1.0,1.0,o,811,low_f0,265.629,tut_tot,true,true,true
mixed,2,12,1.0,1.146,0.0,o,1208,high_ff,267.356,huhn_hohn,true,true,true
mixed,2,13,1.24,1.0,1.0,o,899,high_f0,268.765,brut_brot,true,true,true
mixed,2,14,1.0,1.0,0.25,u,699,center,269.973,kur_chor,false,true,true
mixed,2,15,1.24,1.0,0.5,u,731,high_f0,271.213,bug_bog,false,true,true
mixed,2,16,1.0,1.146,0.5,o,800,high_ff,272.533,zug_zog,true,true,true
mixed,2,17,0.806,1.0,0.0,o,741,low_f0,273.788,brut_brot,true,true,true
mixed,2,18,1.0,1.146,0.25,o,829,high_ff,275.141,zug_zog,true,true,true
mixed,2,19,0.806,1.0,0.5,u,949,low_f0,276.604,tut_tot,false,true,true
mixed,2,20,1.0,0.873,0.0,u,760,low_ff,277.869,bug_bog,false,true,true
mixed,2,21,1.0,1.146,0.75,o,741,high_ff,279.109,brut_brot,true,true,true
mixed,2,22,0.806,1.0,0.25,o,880,low_f0,280.5,huhn_hohn,true,true,true
mixed,2,23,1.0,1.0,0.25,u,859,center,281.877,ruhm_rom,false,true,true
mixed,2,24,1.24,1.0,0.5,u,1109,high_f0,283.501,schuh_show,false,true,true
mixed,2,25,1.0,1.0,0.75,o,971,center,284.964,tut_tot,true,true,true
mixed,2,26,1.24,1.0,1.0,u,821,high_f0,286.301,ruhm_rom,false,true,true
mixed,2,27,1.0,1.146,1.0,o,891,high_ff,287.7,fuhr_vor,true,true,true
mixed,2,28,0.806,1.0,0.25,o,939,low_f0,289.156,bug_bog,true,true,true
mixed,2,29,1.0,1.0,0.25,u,728,center,290.397,kur_chor,false,true,true
mixed,2,30,1.24,1.0,0.25,u,869,high_f0,291.764,fuhr_vor,false,true,true
mixed,2,31,1.0,0.873,0.0,u,680,low_ff,292.949,bug_bog,false,true,true
mixed,2,32,0.806,1.0,0.5,o,611,low_f0,294.061,huhn_hohn,true,true,true
mixed,2,33,1.0,1.146,0.0,u,811,high_ff,295.372,fuhr_vor,false,true,true
mixed,2,34,0.806,1.0,0.25,u,1000,low_f0,296.893,bug_bog,false,true,true
mixed,2,35,1.0,0.873,0.5,u,891,low_ff,298.284,schuh_show,false,true,true
mixed,2,36,0.806,1.0,0.5,o,771,low_f0,299.573,kur_chor,true,true,true
mixed,2,37,1.0,0.873,1.0,u,691,low_ff,300.781,brut_brot,false,true,true
mixed,2,38,1.0,1.146,0.25,o,821,high_ff,302.109,fuhr_vor,true,true,true
mixed,2,39,1.24,1.0,0.25,u,859,high_f0,303.477,schuh_show,false,true,true
mixed,2,40,1.0,1.0,0.75,u,768,center,304.757,bug_bog,false,true,true
mixed,2,41,1.24,1.0,1.0,u,699,high_f0,305.973,ruhm_rom,false,true,true
mixed,2,42,1.0,0.873,0.5,u,691,low_ff,307.164,tut_tot,false,true,true
mixed,2,43,0.806,1.0,1.0,o,811,low_f0,308.484,schuh_show,true,true,true
mixed,2,44,1.0,1.0,0.25,u,691,center,309.684,brut_brot,false,true,true
mixed,2,45,1.0,1.146,0.5,o,712,high_ff,310.908,schuh_show,true,true,true
mixed,2,46,1.0,0.873,1.0,u,651,low_ff,312.069,tut_tot,false,true,true
mixed,2,47,1.24,1.0,0.5,u,909,high_f0,313.476,schuh_show,false,true,true
mixed,2,48,0.806,1.0,0.0,o,808,low_f0,314.797,zug_zog,true,true,true
mixed,2,49,1.0,1.146,0.5,u,1000,high_ff,316.3,brut_brot,false,true,true
mixed,2,50,1.24,1.0,0.25,u,760,high_f0,317.556,kur_chor,false,true,true
mixed,2,51,1.0,1.146,1.0,o,789,high_ff,318.861,tut_tot,true,true,true
mixed,2,52,1.0,1.0,0.25,u,821,center,320.18,zug_zog,false,true,true
mixed,2,53,1.0,0.873,0.5,u,789,low_ff,321.476,schuh_show,false,true,true
mixed,2,54,1.0,1.146,0.75,o,888,high_ff,322.876,kur_chor,true,true,true
mixed,2,55,1.0,0.873,0.75,u,768,low_ff,324.156,tut_tot,false,true,true
mixed,2,56,0.806,1.0,0.25,o,909,low_f0,325.573,schuh_show,true,true,true
mixed,2,57,1.0,1.0,0.5,u,731,center,326.812,ruhm_rom,false,true,true
mixed,2,58,0.806,1.0,0.0,u,771,low_f0,328.1,tut_tot,false,true,true
mixed,2,59,1.0,1.146,1.0,o,781,high_ff,329.381,ruhm_rom,true,true,true
mixed,2,60,1.24,1.0,0.25,u,640,high_f0,330.533,huhn_hohn,false,true,true
mixed,2,61,0.806,1.0,0.5,o,1000,low_f0,332.036,schuh_show,true,true,true
mixed,2,62,1.0,0.873,0.5,u,731,low_ff,333.268,brut_brot,false,true,true
mixed,2,63,0.806,1.0,0.0,o,571,low_f0,334.34,bug_bog,true,true,true
mixed,2,64,1.0,0.873,1.0,u,632,low_ff,335.468,huhn_hohn,false,true,true
mixed,2,65,1.0,1.146,1.0,o,789,high_ff,336.757,brut_brot,true,true,true
mixed,2,66,1.0,1.0,0.75,o,619,center,337.892,bug_bog,true,true,true
mixed,2,67,0.806,1.0,0.0,u,720,low_f0,339.132,fuhr_vor,false,true,true
mixed,2,68,1.0,1.146,0.25,u,752,high_ff,340.388,kur_chor,false,true,true
mixed,2,69,1.0,0.873,0.25,u,691,low_ff,341.58,bug_bog,false,true,true
mixed,2,70,1.0,1.0,0.75,u,931,center,343.02,ruhm_rom,false,true,true
mixed,2,71,1.24,1.0,0.0,u,669,high_f0,344.196,kur_chor,false,true,true
mixed,2,72,0.806,1.0,0.25,o,560,low_f0,345.268,brut_brot,true,true,true
mixed,2,73,1.0,0.873,0.5,u,669,low_ff,346.453,tut_tot,false,true,true
mixed,2,74,1.0,1.146,0.5,o,1011,high_ff,347.981,fuhr_vor,true,true,true
mixed,2,75,1.0,0.873,0.25,u,640,low_ff,349.124,ruhm_rom,false,true,true
mixed,2,76,1.0,1.0,0.5,o,699,center,350.324,brut_brot,true,true,true
mixed,2,77,1.24,1.0,0.75,u,835,high_f0,351.676,schuh_show,false,true,true
mixed,2,78,1.0,1.146,1.0,o,1240,high_ff,353.42,tut_tot,true,true,true
mixed,2,79,1.0,0.873,0.5,u,811,low_ff,354.724,brut_brot,false,true,true
mixed,2,80,1.0,1.0,0.75,o,899,center,356.133,fuhr_vor,true,true,true
mixed,2,81,1.0,1.146,0.25,u,640,high_ff,357.285,bug_bog,false,true,true
mixed,2,82,1.0,1.0,0.5,u,800,center,358.597,huhn_hohn,false,true,true
mixed,2,83,0.806,1.0,0.5,o,1160,low_f0,360.268,fuhr_vor,true,true,true
mixed,2,84,1.0,1.146,0.75,o,1000,high_ff,361.78,schuh_show,true,true,true
mixed,2,85,1.24,1.0,0.0,u,680,high_f0,362.956,brut_brot,false,true,true
mixed,2,86,1.0,0.873,1.0,o,728,low_ff,364.196,huhn_hohn,true,true,true
mixed,2,87,1.24,1.0,0.75,u,709,high_f0,365.42,brut_brot,false,true,true
mixed,2,88,1.0,1.146,0.0,u,1021,high_ff,366.94,ruhm_rom,false,true,true
mixed,2,89,1.0,0.873,0.75,u,771,low_ff,368.204,brut_brot,false,true,true
mixed,2,90,1.0,1.146,0.25,u,739,high_ff,369.444,ruhm_rom,false,true,true
mixed,2,91,1.24,1.0,1.0,u,880,high_f0,370.828,schuh_show,false,true,true
mixed,2,92,1.0,1.146,0.75,o,669,high_ff,371.996,brut_brot,true,true,true
mixed,2,93,0.806,1.0,0.75,o,699,low_f0,373.192,zug_zog,true,true,true
mixed,2,94,1.0,0.873,0.75,u,549,low_ff,374.249,bug_bog,false,true,true
mixed,2,95,0.806,1.0,0.25,o,603,low_f0,375.369,kur_chor,true,true,true
mixed,2,96,1.0,1.146,0.5,u,771,high_ff,376.657,ruhm_rom,false,true,true
mixed,2,97,1.24,1.0,0.25,u,709,high_f0,377.873,tut_tot,false,true,true
mixed,2,98,1.0,1.146,0.5,u,1059,high_ff,379.44,brut_brot,false,true,true
mixed,2,99,1.0,1.0,0.5,u,811,center,380.769,bug_bog,false,true,true
mixed,2,100,0.806,1.0,0.0,o,931,low_f0,382.217,huhn_hohn,true,true,true
mixed,2,101,1.24,1.0,0.75,u,1000,high_f0,383.72,schuh_show,false,true,true
mixed,2,102,1.0,1.146,0.0,o,709,high_ff,384.936,zug_zog,true,true,true
mixed,2,103,1.0,0.873,0.0,u,701,low_ff,386.145,brut_brot,false,true,true
mixed,2,104,1.0,1.146,0.75,o,1011,high_ff,387.664,ruhm_rom,true,true,true
mixed,2,105,1.0,1.0,0.25,u,899,center,404.08,huhn_hohn,false,true,true
mixed,2,106,1.24,1.0,0.75,u,880,high_f0,405.472,schuh_show,false,true,true
mixed,2,107,1.0,1.146,1.0,o,651,high_ff,406.64,kur_chor,true,true,true
mixed,2,108,0.806,1.0,0.0,u,720,low_f0,407.864,huhn_hohn,false,true,true
mixed,2,109,1.0,0.873,0.0,u,811,low_ff,409.177,ruhm_rom,false,true,true
mixed,2,110,1.0,1.146,0.5,o,731,high_ff,410.4,huhn_hohn,true,true,true
mixed,2,111,1.24,1.0,0.5,u,712,high_f0,411.624,fuhr_vor,false,true,true
mixed,2,112,1.0,0.873,0.25,u,691,low_ff,412.816,zug_zog,false,true,true
mixed,2,113,1.0,1.0,0.25,o,789,center,414.113,schuh_show,true,true,true
mixed,2,114,1.0,1.146,0.75,o,800,high_ff,415.416,zug_zog,true,true,true
mixed,2,115,0.806,1.0,0.75,u,960,low_f0,416.88,brut_brot,false,true,true
mixed,2,116,1.0,0.873,0.5,u,808,low_ff,418.192,bug_bog,false,true,true
mixed,2,117,1.24,1.0,0.75,u,829,high_f0,419.536,fuhr_vor,false,true,true
mixed,2,118,1.0,1.146,0.25,o,709,high_ff,420.768,huhn_hohn,true,true,true
mixed,2,119,1.24,1.0,1.0,u,621,high_f0,421.904,brut_brot,false,true,true
mixed,2,120,1.0,0.873,0.0,u,691,low_ff,423.104,bug_bog,false,true,true
mixed,2,121,1.24,1.0,0.25,u,699,high_f0,424.313,brut_brot,false,true,true
mixed,2,122,1.0,0.873,0.5,u,789,low_ff,425.609,fuhr_vor,false,true,true
mixed,2,123,1.24,1.0,0.75,o,632,high_f0,426.744,kur_chor,true,true,true
mixed,2,124,1.0,0.873,1.0,u,691,low_ff,427.944,fuhr_vor,false,true,true
mixed,2,125,1.0,1.146,1.0,o,669,high_ff,429.12,brut_brot,true,true,true
mixed,2,126,0.806,1.0,0.25,o,771,low_f0,430.4,huhn_hohn,true,true,true
mixed,2,127,1.0,0.873,0.0,u,651,low_ff,431.56,kur_chor,false,true,true
mixed,2,128,1.0,1.146,0.75,o,632,high_ff,432.704,brut_brot,true,true,true
mixed,2,129,1.0,0.873,0.75,u,920,low_ff,434.132,fuhr_vor,false,true,true
mixed,2,130,1.0,1.146,0.75,o,571,high_ff,435.204,bug_bog,true,true,true
mixed,2,131,0.806,1.0,0.0,u,691,low_f0,436.404,fuhr_vor,false,true,true
mixed,2,132,1.24,1.0,0.0,u,800,high_f0,437.708,schuh_show,false,true,true
mixed,2,133,1.0,0.873,0.25,u,749,low_ff,438.956,zug_zog,false,true,true
mixed,2,134,0.806,1.0,0.25,o,691,low_f0,440.148,ruhm_rom,true,true,true
mixed,2,135,1.0,1.146,0.75,o,1160,high_ff,441.82,fuhr_vor,true,true,true
mixed,2,136,1.0,0.873,0.75,u,560,low_ff,442.892,zug_zog,false,true,true
mixed,2,137,1.0,1.0,0.5,o,728,center,444.116,huhn_hohn,true,true,true
mixed,2,138,0.806,1.0,1.0,o,760,low_f0,445.381,ruhm_rom,true,true,true
mixed,2,139,1.0,0.873,0.0,u,600,low_ff,446.484,brut_brot,false,true,true
mixed,2,140,0.806,1.0,0.5,o,880,low_f0,447.876,schuh_show,true,true,true
mixed,2,141,1.0,1.0,0.25,u,648,center,449.036,brut_brot,false,true,true
mixed,2,142,1.0,1.146,0.75,o,659,high_ff,450.212,bug_bog,true,true,true
mixed,2,143,0.806,1.0,0.75,o,691,low_f0,451.42,kur_chor,true,true,true
mixed,2,144,1.0,1.0,0.5,u,669,center,452.596,tut_tot,false,true,true
mixed,2,145,1.0,0.873,1.0,u,779,low_ff,453.884,ruhm_rom,false,true,true
mixed,2,146,0.806,1.0,0.75,o,739,low_f0,455.124,kur_chor,true,true,true
mixed,2,147,1.0,1.0,0.25,u,800,center,456.436,zug_zog,false,true,true
mixed,2,148,1.0,0.873,1.0,u,779,low_ff,457.724,tut_tot,false,true,true
mixed,2,149,1.0,1.0,0.25,u,661,center,458.9,zug_zog,false,true,true
mixed,2,150,1.24,1.0,0.75,u,720,high_f0,460.132,ruhm_rom,false,true,true
mixed,2,151,0.806,1.0,0.25,o,512,low_f0,461.148,kur_chor,true,true,true
mixed,2,152,1.0,1.0,0.25,o,909,center,462.556,huhn_hohn,true,true,true
mixed,2,153,1.0,0.873,0.0,u,749,low_ff,463.804,schuh_show,false,true,true
mixed,2,154,1.0,1.146,1.0,o,709,high_ff,465.036,zug_zog,true,true,true
mixed,2,155,1.0,1.0,0.75,u,619,center,466.172,brut_brot,false,true,true
mixed,2,156,1.24,1.0,0.75,u,691,high_f0,467.373,kur_chor,false,true,true
mixed,2,157,0.806,1.0,0.5,o,1109,low_f0,468.996,brut_brot,true,true,true
mixed,2,158,1.0,0.873,0.75,u,760,low_ff,470.26,tut_tot,false,true,true
mixed,2,159,1.0,1.146,1.0,o,701,high_ff,471.454,brut_brot,true,true,true
mixed,2,160,0.806,1.0,0.0,u,621,low_f0,472.588,bug_bog,false,true,true
mixed,2,161,1.0,1.0,0.25,u,789,center,473.876,ruhm_rom,false,true,true
mixed,2,162,1.0,0.873,0.75,u,960,low_ff,475.348,huhn_hohn,false,true,true
mixed,2,163,1.24,1.0,0.0,u,1000,high_f0,476.868,schuh_show,false,true,true
mixed,2,164,1.0,1.0,0.75,u,659,center,478.036,ruhm_rom,false,true,true
mixed,2,165,1.0,0.873,1.0,o,589,low_ff,479.14,kur_chor,true,true,true
mixed,2,166,1.0,1.146,1.0,o,880,high_ff,480.524,huhn_hohn,true,true,true
mixed,2,167,1.0,0.873,0.5,u,880,low_ff,481.916,brut_brot,false,true,true
mixed,2,168,1.0,1.146,0.25,o,859,high_ff,483.292,schuh_show,true,true,true
mixed,2,169,1.24,1.0,1.0,o,880,high_f0,484.684,zug_zog,true,true,true
mixed,2,170,1.0,1.146,0.75,o,699,high_ff,485.892,kur_chor,true,true,true
mixed,2,171,1.0,1.0,0.75,o,720,center,487.132,huhn_hohn,true,true,true
mixed,2,172,1.0,0.873,1.0,u,691,low_ff,488.324,tut_tot,false,true,true
mixed,2,173,0.806,1.0,1.0,o,661,low_f0,489.508,bug_bog,true,true,true
mixed,2,174,1.0,1.0,0.75,u,659,center,490.676,tut_tot,false,true,true
mixed,2,175,1.0,0.873,0.75,u,699,low_ff,491.892,ruhm_rom,false,true,true
mixed,2,176,1.24,1.0,1.0,o,1000,high_f0,493.392,schuh_show,true,true,true
mixed,2,177,0.806,1.0,0.5,o,819,low_f0,494.712,fuhr_vor,true,true,true
mixed,2,178,1.24,1.0,1.0,o,760,high_f0,495.976,zug_zog,true,true,true
mixed,2,179,0.806,1.0,0.75,o,691,low_f0,497.184,ruhm_rom,true,true,true
mixed,2,180,1.0,1.146,0.25,o,720,high_ff,498.4,fuhr_vor,true,true,true
mixed,2,181,1.0,0.873,1.0,o,640,low_ff,499.552,kur_chor,true,true,true
mixed,2,182,1.24,1.0,0.75,o,779,high_f0,500.848,zug_zog,true,true,true
mixed,2,183,1.0,1.0,0.75,o,629,center,501.992,huhn_hohn,true,true,true
mixed,2,184,1.0,1.146,0.75,o,669,high_ff,503.16,zug_zog,true,true,true
mixed,2,185,1.0,0.873,0.75,u,560,low_ff,504.224,kur_chor,false,true,true
mixed,2,186,1.0,1.146,0.25,o,629,high_ff,505.376,zug_zog,true,true,true
mixed,2,187,0.806,1.0,0.25,o,909,low_f0,506.8,schuh_show,true,true,true
mixed,2,188,1.0,1.0,0.75,o,659,center,507.968,kur_chor,true,true,true
mixed,2,189,0.806,1.0,0.75,o,611,low_f0,509.096,huhn_hohn,true,true,true
mixed,2,190,1.0,1.0,0.5,u,891,center,510.504,tut_tot,false,true,true
mixed,2,191,1.0,0.873,0.0,u,891,low_ff,511.904,fuhr_vor,false,true,true
mixed,2,192,0.806,1.0,0.25,o,709,low_f0,513.128,brut_brot,true,true,true
mixed,2,193,1.0,1.0,0.75,o,691,center,514.328,huhn_hohn,true,true,true
mixed,2,194,1.0,1.146,0.0,o,509,high_ff,515.352,kur_chor,true,true,true
mixed,2,195,1.0,0.873,0.25,u,749,low_ff,516.6,ruhm_rom,false,true,true
mixed,2,196,1.24,1.0,0.75,u,1792,high_f0,518.904,kur_chor,false,true,true
mixed,2,197,1.0,1.146,0.25,o,960,high_ff,520.376,bug_bog,true,true,true
mixed,2,198,0.806,1.0,0.75,o,949,low_f0,521.832,schuh_show,true,true,true
mixed,2,199,1.0,0.873,0.5,u,899,low_ff,523.248,kur_chor,false,true,true
mixed,2,200,1.24,1.0,0.0,u,960,high_f0,524.712,zug_zog,false,true,true
mixed,2,201,1.0,1.146,0.0,u,909,high_ff,526.128,ruhm_rom,false,true,true
mixed,2,202,0.806,1.0,1.0,o,741,low_f0,527.384,brut_brot,true,true,true
mixed,2,203,1.24,1.0,0.0,u,1120,high_f0,529.008,huhn_hohn,false,true,true
mixed,2,204,1.0,0.873,0.5,u,811,low_ff,530.328,zug_zog,false,true,true
mixed,2,205,1.0,1.0,0.75,o,989,center,531.832,schuh_show,true,true,true
mixed,2,206,1.0,1.146,0.0,o,829,high_ff,533.176,brut_brot,true,true,true
mixed,2,207,1.0,1.0,0.5,u,851,center,534.536,ruhm_rom,false,true,true
mixed,2,208,1.24,1.0,0.25,u,619,high_f0,550.688,tut_tot,false,true,true
mixed,2,209,0.806,1.0,0.0,o,531,low_f0,551.736,bug_bog,true,true,true
mixed,2,210,1.0,0.873,0.0,u,981,low_ff,553.216,kur_chor,false,true,true
mixed,2,211,0.806,1.0,0.5,o,541,low_f0,554.26,bug_bog,true,true,true
mixed,2,212,1.0,0.873,0.0,u,789,low_ff,555.556,fuhr_vor,false,true,true
mixed,2,213,0.806,1.0,0.5,o,640,low_f0,556.708,ruhm_rom,true,true,true
mixed,2,214,1.0,1.0,0.75,o,629,center,557.852,huhn_hohn,true,true,true
mixed,2,215,0.806,1.0,0.25,o,691,low_f0,559.06,tut_tot,true,true,true
mixed,2,216,1.24,1.0,0.25,u,531,high_f0,560.1,kur_chor,false,true,true
mixed,2,217,1.0,0.873,1.0,u,800,low_ff,561.404,fuhr_vor,false,true,true
mixed,2,218,1.0,1.146,0.75,o,648,high_ff,562.556,zug_zog,true,true,true
mixed,2,219,1.24,1.0,0.0,u,728,high_f0,563.796,tut_tot,false,true,true
mixed,2,220,1.0,0.873,0.25,u,949,low_ff,565.244,fuhr_vor,false,true,true
mixed,2,221,1.24,1.0,0.5,u,619,high_f0,566.364,ruhm_rom,false,true,true
mixed,2,222,1.0,0.873,0.0,u,632,low_ff,567.508,bug_bog,false,true,true
mixed,2,223,1.0,1.146,1.0,o,491,high_ff,568.5,kur_chor,true,true,true
mixed,2,224,1.24,1.0,0.0,u,629,high_f0,569.636,huhn_hohn,false,true,true
mixed,2,225,1.0,1.0,0.25,u,792,center,570.948,tut_tot,false,true,true
mixed,2,226,0.806,1.0,0.25,o,909,low_f0,572.373,schuh_show,true,true,true
mixed,2,227,1.0,1.146,0.0,u,1120,high_ff,574.012,fuhr_vor,false,true,true
mixed,2,228,1.0,1.0,0.25,o,851,center,575.364,schuh_show,true,true,true
mixed,2,229,1.0,0.873,0.5,u,709,low_ff,576.58,tut_tot,false,true,true
mixed,2,230,1.24,1.0,1.0,o,672,high_f0,577.748,kur_chor,true,true,true
mixed,2,231,1.0,1.0,0.5,o,800,center,579.052,zug_zog,true,true,true
mixed,2,232,0.806,1.0,0.0,u,661,low_f0,580.228,huhn_hohn,false,true,true
mixed,2,233,1.0,1.146,0.0,o,869,high_ff,581.62,zug_zog,true,true,true
mixed,2,234,1.24,1.0,0.25,u,2909,high_f0,585.053,schuh_show,false,true,true
mixed,2,235,1.0,0.873,0.75,u,789,low_ff,586.372,zug_zog,false,true,true
mixed,2,236,1.0,1.146,0.0,u,1061,high_ff,587.948,kur_chor,false,true,true
mixed,2,237,1.24,1.0,0.5,u,1051,high_f0,589.5,huhn_hohn,false,true,true
mixed,2,238,1.0,1.146,1.0,o,909,high_ff,590.916,zug_zog,true,true,true
mixed,2,239,1.24,1.0,0.5,u,848,high_f0,592.276,tut_tot,false,true,true
mixed,2,240,0.806,1.0,0.75,o,760,low_f0,593.54,bug_bog,true,true,true
mixed,2,241,1.24,1.0,1.0,u,661,high_f0,594.7,tut_tot,false,true,true
mixed,2,242,1.0,1.146,0.25,o,709,high_ff,595.924,brut_brot,true,true,true
mixed,2,243,0.806,1.0,0.0,o,621,low_f0,597.06,bug_bog,true,true,true
mixed,2,244,1.24,1.0,0.5,u,640,high_f0,598.205,ruhm_rom,false,true,true
mixed,2,245,0.806,1.0,0.0,o,821,low_f0,599.54,schuh_show,true,true,true
mixed,2,246,1.0,1.146,1.0,o,731,high_ff,600.764,ruhm_rom,true,true,true
mixed,2,247,1.0,0.873,0.25,u,979,low_ff,602.252,kur_chor,false,true,true
mixed,2,248,1.0,1.146,1.0,o,789,high_ff,603.572,schuh_show,true,true,true
mixed,2,249,1.24,1.0,0.75,o,931,high_f0,605.004,zug_zog,true,true,true
mixed,2,250,1.0,0.873,0.0,u,589,low_ff,606.1,huhn_hohn,false,true,true
mixed,2,251,0.806,1.0,0.5,o,691,low_f0,607.3,tut_tot,true,true,true
mixed,2,252,1.0,0.873,0.0,u,509,low_ff,608.316,huhn_hohn,false,true,true
mixed,2,253,1.0,1.146,0.0,o,899,high_ff,609.716,brut_brot,true,true,true
mixed,2,254,1.0,0.873,0.5,u,869,low_ff,611.1,zug_zog,false,true,true
mixed,2,255,1.24,1.0,0.5,u,741,high_f0,612.348,kur_chor,false,true,true
mixed,2,256,1.0,0.873,0.5,u,829,low_ff,613.684,fuhr_vor,false,true,true
mixed,2,257,0.806,1.0,0.25,o,672,low_f0,614.868,brut_brot,true,true,true
mixed,2,258,1.0,1.146,0.0,o,709,high_ff,616.084,bug_bog,true,true,true
mixed,2,259,1.0,0.873,0.5,u,581,low_ff,617.18,ruhm_rom,false,true,true
mixed,2,260,1.0,1.0,0.25,o,771,center,618.452,huhn_hohn,true,true,true
mixed,2,261,0.806,1.0,0.25,u,760,low_f0,619.724,ruhm_rom,false,true,true
mixed,2,262,1.0,0.873,0.0,u,800,low_ff,621.028,zug_zog,false,true,true
mixed,2,263,1.24,1.0,0.25,u,669,high_f0,622.204,bug_bog,false,true,true
mixed,2,264,0.806,1.0,1.0,o,699,low_f0,623.404,ruhm_rom,true,true,true
mixed,2,265,1.24,1.0,0.25,u,579,high_f0,624.492,bug_bog,false,true,true
mixed,2,266,1.0,0.873,0.0,u,800,low_ff,625.812,ruhm_rom,false,true,true
mixed,2,267,1.0,1.146,0.25,o,749,high_ff,627.076,tut_tot,true,true,true
mixed,2,268,1.0,0.873,0.25,u,829,low_ff,628.404,kur_chor,false,true,true
mixed,2,269,1.24,1.0,0.5,u,712,high_f0,629.628,ruhm_rom,false,true,true
mixed,2,270,1.0,0.873,1.0,o,800,low_ff,630.924,huhn_hohn,true,true,true
mixed,2,271,1.0,1.0,0.5,o,659,center,632.093,brut_brot,true,true,true
mixed,2,272,1.24,1.0,0.0,u,680,high_f0,633.284,ruhm_rom,false,true,true
mixed,2,273,1.0,0.873,0.75,u,728,low_ff,634.516,zug_zog,false,true,true
mixed,2,274,1.24,1.0,1.0,o,651,high_f0,635.684,bug_bog,true,true,true
mixed,2,275,1.0,1.146,1.0,o,680,high_ff,636.884,kur_chor,true,true,true
mixed,2,276,0.806,1.0,0.25,o,1741,low_f0,639.14,zug_zog,true,true,true
mixed,2,277,1.0,1.146,0.75,o,960,high_ff,640.612,fuhr_vor,true,true,true
mixed,2,278,1.0,1.0,0.5,o,661,center,641.788,brut_brot,true,true,true
mixed,2,279,1.0,0.873,0.5,u,579,low_ff,642.876,kur_chor,false,true,true
mixed,2,280,1.0,1.146,0.75,o,691,high_ff,644.068,huhn_hohn,true,true,true
mixed,2,281,0.806,1.0,0.0,u,640,low_f0,645.212,kur_chor,false,true,true
mixed,2,282,1.24,1.0,0.5,u,920,high_f0,646.66,tut_tot,false,true,true
mixed,2,283,1.0,1.0,0.75,o,741,center,647.908,kur_chor,true,true,true
mixed,2,284,0.806,1.0,0.5,o,1200,low_f0,649.628,fuhr_vor,true,true,true
mixed,2,285,1.0,1.146,0.25,u,680,high_ff,650.812,bug_bog,false,true,true
mixed,2,286,0.806,1.0,0.5,o,800,low_f0,652.124,huhn_hohn,true,true,true
mixed,2,287,1.0,1.0,0.5,o,851,center,653.484,zug_zog,true,true,true
mixed,2,288,0.806,1.0,0.75,o,952,low_f0,654.948,fuhr_vor,true,true,true
mixed,2,289,1.0,0.873,0.25,u,869,low_ff,656.324,brut_brot,false,true,true
mixed,2,290,1.0,1.146,0.0,o,821,high_ff,657.66,ruhm_rom,true,true,true
mixed,2,291,0.806,1.0,1.0,o,709,low_f0,658.876,bug_bog,true,true,true
mixed,2,292,1.0,1.0,0.25,u,1099,center,660.476,schuh_show,false,true,true
mixed,2,293,1.24,1.0,0.25,u,808,high_f0,661.796,zug_zog,false,true,true
mixed,2,294,1.0,0.873,0.0,u,741,low_ff,663.06,tut_tot,false,true,true
mixed,2,295,1.0,1.146,0.5,o,821,high_ff,664.387,schuh_show,true,true,true
mixed,2,296,1.0,1.0,0.25,u,728,center,665.635,bug_bog,false,true,true
mixed,2,297,0.806,1.0,0.75,o,869,low_f0,667.012,fuhr_vor,true,true,true
mixed,2,298,1.0,1.0,0.5,u,781,center,668.3,zug_zog,false,true,true
mixed,2,299,1.24,1.0,0.5,u,701,high_f0,669.508,huhn_hohn,false,true,true
mixed,2,300,1.0,0.873,0.25,u,821,low_ff,670.828,kur_chor,false,true,true
mixed,2,301,1.0,1.146,0.5,o,669,high_ff,672.012,bug_bog,true,true,true
mixed,2,302,1.0,0.873,0.75,u,811,low_ff,673.332,ruhm_rom,false,true,true
mixed,2,303,1.0,1.0,0.5,u,1040,center,674.882,kur_chor,false,true,true
mixed,2,304,1.0,1.146,0.25,o,1051,high_ff,676.45,ruhm_rom,true,true,true
mixed,2,305,1.24,1.0,1.0,u,981,high_f0,677.946,tut_tot,false,true,true
mixed,2,306,1.0,1.146,1.0,o,949,high_ff,679.41,huhn_hohn,true,true,true
mixed,2,307,1.24,1.0,0.0,u,771,high_f0,680.698,schuh_show,false,true,true
mixed,2,308,0.806,1.0,0.25,o,869,low_f0,682.074,fuhr_vor,true,true,true
mixed,2,309,1.0,1.146,0.0,u,939,high_ff,683.514,kur_chor,false,true,true
mixed,2,310,1.0,1.0,0.5,u,899,center,684.93,ruhm_rom,false,true,true
mixed,2,311,0.806,1.0,0.25,o,800,low_f0,686.25,zug_zog,true,true,true
mixed,2,312,1.0,0.873,0.5,u,829,low_ff,702.619,fuhr_vor,false,true,true
mixed,2,313,1.0,1.146,0.75,o,651,high_ff,703.77,tut_tot,true,true,true
mixed,2,314,1.24,1.0,0.25,u,637,high_f0,704.913,huhn_hohn,false,true,true
mixed,2,315,0.806,1.0,0.0,u,720,low_f0,706.154,brut_brot,false,true,true
mixed,2,316,1.0,1.0,0.5,u,629,center,707.29,tut_tot,false,true,true
mixed,2,317,1.0,1.146,0.0,u,1061,high_ff,708.866,brut_brot,false,true,true
mixed,2,318,0.806,1.0,0.0,u,691,low_f0,710.058,kur_chor,false,true,true
mixed,2,319,1.24,1.0,1.0,o,680,high_f0,711.242,brut_brot,true,true,true
mixed,2,320,0.806,1.0,1.0,o,701,low_f0,712.466,zug_zog,true,true,true
mixed,2,321,1.0,1.146,0.75,o,560,high_ff,713.522,bug_bog,true,true,true
mixed,2,322,1.24,1.0,0.0,u,688,high_f0,714.714,zug_zog,false,true,true
mixed,2,323,1.0,0.873,0.75,u,619,low_ff,715.85,brut_brot,false,true,true
mixed,2,324,1.0,1.146,0.25,o,760,high_ff,717.122,zug_zog,true,true,true
mixed,2,325,1.0,0.873,0.25,u,741,low_ff,718.378,fuhr_vor,false,true,true
mixed,2,326,0.806,1.0,0.5,o,691,low_f0,719.57,huhn_hohn,true,true,true
mixed,2,327,1.24,1.0,0.75,o,971,high_f0,721.058,kur_chor,true,true,true
mixed,2,328,1.0,1.146,0.75,o,920,high_ff,722.482,zug_zog,true,true,true
mixed,2,329,1.0,1.0,0.75,o,651,center,723.642,bug_bog,true,true,true
mixed,2,330,1.0,0.873,0.0,u,811,low_ff,724.97,schuh_show,false,true,true
mixed,2,331,1.0,1.0,0.75,o,651,center,726.13,brut_brot,true,true,true
mixed,2,332,1.24,1.0,0.5,u,749,high_f0,727.394,tut_tot,false,true,true
mixed,2,333,0.806,1.0,1.0,o,651,low_f0,728.546,kur_chor,true,true,true
mixed,2,334,1.0,1.146,0.5,o,920,high_ff,729.962,fuhr_vor,true,true,true
mixed,2,335,1.24,1.0,0.75,u,669,high_f0,731.138,bug_bog,false,true,true
mixed,2,336,0.806,1.0,0.5,o,800,low_f0,732.45,tut_tot,true,true,true
mixed,2,337,1.0,0.873,1.0,u,851,low_ff,733.81,zug_zog,false,true,true
mixed,2,338,1.0,1.146,0.25,o,731,high_ff,735.052,huhn_hohn,true,true,true
mixed,2,339,1.24,1.0,0.75,u,581,high_f0,736.14,tut_tot,false,true,true
mixed,2,340,1.0,1.146,0.0,o,669,high_ff,737.315,bug_bog,true,true,true
mixed,2,341,1.0,0.873,1.0,u,992,low_ff,738.82,huhn_hohn,false,true,true
mixed,2,342,1.24,1.0,0.5,u,880,high_f0,740.204,tut_tot,false,true,true
mixed,2,343,1.0,0.873,0.5,u,760,low_ff,741.468,ruhm_rom,false,true,true
mixed,2,344,0.806,1.0,0.25,o,779,low_f0,742.747,brut_brot,true,true,true
mixed,2,345,1.24,1.0,0.5,u,688,high_f0,743.948,bug_bog,false,true,true
mixed,2,346,0.806,1.0,1.0,o,891,low_f0,745.364,schuh_show,true,true,true
mixed,2,347,1.0,1.146,1.0,o,960,high_ff,746.843,huhn_hohn,true,true,true
mixed,2,348,1.24,1.0,0.25,u,749,high_f0,748.107,fuhr_vor,false,true,true
mixed,2,349,1.0,0.873,0.25,u,760,low_ff,749.379,kur_chor,false,true,true
mixed,2,350,1.0,1.146,0.5,o,669,high_ff,750.555,tut_tot,true,true,true
mixed,2,351,1.24,1.0,0.25,u,880,high_f0,751.947,zug_zog,false,true,true
mixed,2,352,0.806,1.0,0.0,u,1059,low_f0,753.515,brut_brot,false,true,true
mixed,2,353,1.0,0.873,0.25,u,800,low_ff,754.82,tut_tot,false,true,true
mixed,2,354,1.0,1.0,0.25,u,749,center,756.075,brut_brot,false,true,true
mixed,2,355,0.806,1.0,1.0,o,728,low_f0,757.307,kur_chor,true,true,true
mixed,2,356,1.0,0.873,0.5,u,1299,low_ff,759.123,schuh_show,false,true,true
mixed,2,357,1.0,1.146,0.25,u,1691,high_ff,761.331,bug_bog,false,true,true
mixed,2,358,1.0,1.0,0.75,u,1011,center,762.852,ruhm_rom,false,true,true
mixed,2,359,0.806,1.0,1.0,o,731,low_f0,764.075,huhn_hohn,true,true,true
mixed,2,360,1.0,0.873,1.0,u,731,low_ff,765.324,zug_zog,false,true,true
mixed,2,361,0.806,1.0,0.25,u,771,low_f0,766.595,bug_bog,false,true,true
mixed,2,362,1.0,0.873,0.0,u,701,low_ff,767.812,tut_tot,false,true,true
mixed,2,363,1.0,1.146,0.0,o,931,high_ff,769.252,schuh_show,true,true,true
mixed,2,364,1.0,0.873,0.5,u,952,low_ff,770.7,kur_chor,false,true,true
mixed,2,365,1.24,1.0,1.0,o,941,high_f0,772.14,zug_zog,true,true,true
mixed,2,366,1.0,1.146,0.5,o,771,high_ff,773.412,brut_brot,true,true,true
mixed,2,367,1.0,0.873,0.5,u,771,low_ff,774.675,ruhm_rom,false,true,true
mixed,2,368,1.0,1.146,0.25,o,840,high_ff,776.028,tut_tot,true,true,true
mixed,2,369,1.0,0.873,1.0,u,829,low_ff,777.364,brut_brot,false,true,true
mixed,2,370,0.806,1.0,0.25,u,1101,low_f0,778.98,fuhr_vor,false,true,true
mixed,2,371,1.0,1.146,0.5,o,749,high_ff,780.244,huhn_hohn,true,true,true
mixed,2,372,1.0,1.0,0.25,u,760,center,781.508,tut_tot,false,true,true
mixed,2,373,1.24,1.0,0.75,u,859,high_f0,782.884,ruhm_rom,false,true,true
mixed,2,374,0.806,1.0,0.5,o,1661,low_f0,785.06,brut_brot,true,true,true
mixed,2,375,1.0,0.873,0.0,u,869,low_ff,786.444,zug_zog,false,true,true
mixed,2,376,1.0,1.146,0.25,o,680,high_ff,787.643,kur_chor,true,true,true
mixed,2,377,0.806,1.0,1.0,o,1021,low_f0,789.179,zug_zog,true,true,true
mixed,2,378,1.24,1.0,0.25,u,1251,high_f0,790.94,ruhm_rom,false,true,true
mixed,2,379,1.0,1.146,0.25,o,1600,high_ff,793.06,kur_chor,true,true,true
mixed,2,380,1.0,0.873,0.0,u,1059,low_ff,794.644,schuh_show,false,true,true
mixed,2,381,1.24,1.0,0.25,u,741,high_f0,795.908,tut_tot,false,true,true
mixed,2,382,1.0,1.146,0.0,o,811,high_ff,797.228,zug_zog,true,true,true
mixed,2,383,1.24,1.0,1.0,o,1011,high_f0,798.748,fuhr_vor,true,true,true
mixed,2,384,1.0,1.146,0.25,o,1288,high_ff,800.556,schuh_show,true,true,true
mixed,2,385,1.0,1.0,0.5,o,869,center,801.924,bug_bog,true,true,true
mixed,2,386,1.24,1.0,0.25,u,672,high_f0,803.108,huhn_hohn,false,true,true
mixed,2,387,1.0,1.0,0.5,o,1019,center,804.636,fuhr_vor,true,true,true
mixed,2,388,1.24,1.0,1.0,u,779,high_f0,805.924,tut_tot,false,true,true
mixed,2,389,0.806,1.0,0.75,o,680,low_f0,807.108,kur_chor,true,true,true
mixed,2,390,1.24,1.0,0.5,u,691,high_f0,808.308,bug_bog,false,true,true
mixed,2,391,1.0,0.873,1.0,o,829,low_ff,809.643,schuh_show,true,true,true
mixed,2,392,1.0,1.146,0.75,o,739,high_ff,810.892,bug_bog,true,true,true
mixed,2,393,1.24,1.0,0.5,u,712,high_f0,812.108,brut_brot,false,true,true
mixed,2,394,1.0,1.146,0.0,o,691,high_ff,813.308,bug_bog,true,true,true
mixed,2,395,0.806,1.0,0.75,o,821,low_f0,814.628,fuhr_vor,true,true,true
mixed,2,396,1.0,1.0,0.5,o,728,center,815.876,bug_bog,true,true,true
mixed,2,397,0.806,1.0,1.0,o,909,low_f0,817.3,huhn_hohn,true,true,true
mixed,2,398,1.24,1.0,0.0,u,611,high_f0,818.412,bug_bog,false,true,true
mixed,2,399,1.0,1.0,0.5,o,741,center,819.668,fuhr_vor,true,true,true
mixed,2,400,0.806,1.0,0.0,u,720,low_f0,820.883,zug_zog,false,true,true
mixed,2,401,1.24,1.0,0.75,u,832,high_f0,822.228,brut_brot,false,true,true
mixed,2,402,1.0,0.873,0.25,u,840,low_ff,823.563,fuhr_vor,false,true,true
mixed,2,403,1.0,1.146,1.0,o,611,high_ff,824.692,ruhm_rom,true,true,true
mixed,2,404,1.0,1.0,0.5,o,629,center,825.835,huhn_hohn,true,true,true
mixed,2,405,1.0,0.873,0.75,u,781,low_ff,827.14,fuhr_vor,false,true,true
mixed,2,406,1.24,1.0,0.5,u,760,high_f0,828.412,kur_chor,false,true,true
mixed,2,407,1.0,1.146,0.5,o,720,high_ff,829.644,bug_bog,true,true,true
mixed,2,408,1.0,0.873,1.0,o,840,low_ff,830.996,zug_zog,true,true,true
mixed,2,409,1.0,1.0,0.75,o,739,center,832.243,brut_brot,true,true,true
mixed,2,410,1.0,0.873,0.5,u,619,low_ff,833.372,huhn_hohn,false,true,true
mixed,2,411,0.806,1.0,0.5,o,680,low_f0,834.58,kur_chor,true,true,true
mixed,2,412,1.0,0.873,0.25,u,720,low_ff,835.796,brut_brot,false,true,true
mixed,2,413,0.806,1.0,0.0,u,960,low_f0,837.26,fuhr_vor,false,true,true
mixed,2,414,1.0,0.873,1.0,o,829,low_ff,838.596,zug_zog,true,true,true
mixed,2,415,1.24,1.0,0.5,u,701,high_f0,854.828,kur_chor,false,true,true
mixed,2,416,1.0,1.0,0.25,u,739,center,856.075,ruhm_rom,false,true,true
mixed,2,417,1.24,1.0,0.25,u,640,high_f0,857.228,kur_chor,false,true,true
mixed,2,418,1.0,1.146,0.75,o,779,high_ff,858.516,huhn_hohn,true,true,true
mixed,2,419,0.806,1.0,1.0,o,720,low_f0,859.748,tut_tot,true,true,true
mixed,2,420,1.0,0.873,0.75,u,627,low_ff,860.875,bug_bog,false,true,true
mixed,2,421,1.0,1.146,0.0,u,829,high_ff,862.22,fuhr_vor,false,true,true
mixed,2,422,0.806,1.0,0.25,u,909,low_f0,863.635,kur_chor,false,true,true
mixed,2,423,1.24,1.0,0.25,o,880,high_f0,865.02,zug_zog,true,true,true
mixed,2,424,1.0,0.873,1.0,u,829,low_ff,866.355,brut_brot,false,true,true
mixed,2,425,1.0,1.0,0.25,u,749,center,867.603,bug_bog,false,true,true
mixed,2,426,0.806,1.0,0.5,o,728,low_f0,868.835,ruhm_rom,true,true,true
mixed,2,427,1.0,0.873,0.5,u,600,low_ff,869.947,huhn_hohn,false,true,true
mixed,2,428,0.806,1.0,0.25,o,829,low_f0,871.292,tut_tot,true,true,true
mixed,2,429,1.0,1.146,0.75,o,931,high_ff,872.732,fuhr_vor,true,true,true
mixed,2,430,1.24,1.0,0.75,o,1040,high_f0,874.292,zug_zog,true,true,true
mixed,2,431,1.0,1.146,0.25,o,752,high_ff,875.548,huhn_hohn,true,true,true
mixed,2,432,1.24,1.0,1.0,o,1869,high_f0,877.923,schuh_show,true,true,true
mixed,2,433,1.0,1.0,0.25,u,861,center,879.308,fuhr_vor,false,true,true
mixed,2,434,0.806,1.0,0.5,o,771,low_f0,880.588,kur_chor,true,true,true
mixed,2,435,1.24,1.0,1.0,u,789,high_f0,881.9,bug_bog,false,true,true
mixed,2,436,1.0,1.146,0.25,o,1011,high_ff,883.42,schuh_show,true,true,true
mixed,2,437,0.806,1.0,1.0,u,720,low_f0,884.652,brut_brot,false,true,true
mixed,2,438,1.0,1.0,0.5,o,672,center,885.828,schuh_show,true,true,true
mixed,2,439,1.0,1.146,0.0,o,651,high_ff,886.988,bug_bog,true,true,true
mixed,2,440,1.0,0.873,0.5,u,1080,low_ff,888.563,kur_chor,false,true,true
mixed,2,441,1.24,1.0,0.0,u,640,high_f0,889.732,bug_bog,false,true,true
mixed,2,442,0.806,1.0,0.0,o,811,low_f0,891.059,schuh_show,true,true,true
mixed,2,443,1.0,1.146,0.75,o,931,high_ff,892.507,tut_tot,true,true,true
mixed,2,444,1.0,1.0,0.75,o,800,center,893.803,kur_chor,true,true,true
mixed,2,445,1.0,1.146,0.0,o,880,high_ff,895.195,huhn_hohn,true,true,true
mixed,2,446,1.24,1.0,1.0,u,800,high_f0,896.508,fuhr_vor,false,true,true
mixed,2,447,1.0,0.873,0.25,u,749,low_ff,897.755,huhn_hohn,false,true,true
mixed,2,448,0.806,1.0,0.25,o,720,low_f0,898.979,zug_zog,true,true,true
mixed,2,449,1.24,1.0,0.25,u,781,high_f0,900.259,brut_brot,false,true,true
mixed,2,450,1.0,0.873,1.0,u,811,low_ff,901.58,fuhr_vor,false,true,true
mixed,2,451,1.0,1.146,0.75,o,661,high_ff,902.74,huhn_hohn,true,true,true
mixed,2,452,0.806,1.0,1.0,o,701,low_f0,903.948,ruhm_rom,true,true,true
mixed,2,453,1.0,1.0,0.75,o,789,center,905.259,fuhr_vor,true,true,true
mixed,2,454,1.0,0.873,0.75,u,899,low_ff,906.676,schuh_show,false,true,true
mixed,2,455,1.24,1.0,1.0,o,731,high_f0,907.907,kur_chor,true,true,true
mixed,2,456,0.806,1.0,0.75,o,861,low_f0,909.267,ruhm_rom,true,true,true
mixed,2,457,1.24,1.0,0.75,u,851,high_f0,910.628,brut_brot,false,true,true
mixed,2,458,1.0,0.873,0.0,u,949,low_ff,912.083,fuhr_vor,false,true,true
mixed,2,459,1.0,1.146,1.0,o,739,high_ff,913.323,brut_brot,true,true,true
mixed,2,460,1.0,1.0,0.25,u,941,center,914.78,tut_tot,false,true,true
mixed,2,461,0.806,1.0,0.5,o,952,low_f0,916.221,bug_bog,true,true,true
mixed,2,462,1.0,0.873,0.25,u,789,low_ff,917.517,zug_zog,false,true,true
mixed,2,463,1.24,1.0,0.25,u,941,high_f0,918.973,fuhr_vor,false,true,true
mixed,2,464,1.0,1.146,0.5,o,840,high_ff,920.309,tut_tot,true,true,true
mixed,2,465,0.806,1.0,0.25,o,909,low_f0,921.717,kur_chor,true,true,true
mixed,2,466,1.0,0.873,0.0,u,651,low_ff,922.877,brut_brot,false,true,true
mixed,2,467,1.24,1.0,1.0,o,861,high_f0,924.253,ruhm_rom,true,true,true
mixed,2,468,1.0,0.873,0.0,u,971,low_ff,925.733,huhn_hohn,false,true,true
mixed,2,469,1.0,1.0,0.5,o,800,center,927.037,brut_brot,true,true,true
mixed,2,470,1.0,0.873,1.0,o,749,low_ff,928.294,kur_chor,true,true,true
mixed,2,471,1.24,1.0,1.0,u,720,high_f0,929.526,bug_bog,false,true,true
mixed,2,472,1.0,0.873,0.25,u,861,low_ff,930.901,huhn_hohn,false,true,true
mixed,2,473,1.0,1.146,0.0,o,691,high_ff,932.101,tut_tot,true,true,true
mixed,2,474,0.806,1.0,0.5,o,891,low_f0,933.501,zug_zog,true,true,true
mixed,2,475,1.24,1.0,0.75,u,600,high_f0,934.597,huhn_hohn,false,true,true
mixed,2,476,0.806,1.0,0.25,o,659,low_f0,935.757,bug_bog,true,true,true
mixed,2,477,1.0,1.146,1.0,o,829,high_ff,937.109,fuhr_vor,true,true,true
mixed,2,478,1.0,1.0,0.75,o,899,center,938.525,tut_tot,true,true,true
mixed,2,479,1.0,1.146,0.75,o,872,high_ff,939.901,fuhr_vor,true,true,true
mixed,2,480,1.0,0.873,0.5,u,640,low_ff,941.053,bug_bog,false,true,true
mixed,2,481,0.806,1.0,0.75,u,1051,low_f0,942.613,zug_zog,false,true,true
mixed,2,482,1.0,1.0,0.5,o,1061,center,944.173,fuhr_vor,true,true,true
mixed,2,483,1.0,1.146,0.25,o,960,high_ff,945.645,ruhm_rom,true,true,true
mixed,2,484,0.806,1.0,0.0,o,800,low_f0,946.949,zug_zog,true,true,true
mixed,2,485,1.0,1.146,0.5,o,760,high_ff,948.213,tut_tot,true,true,true
mixed,2,486,1.24,1.0,0.25,u,509,high_f0,949.229,bug_bog,false,true,true
mixed,2,487,1.0,0.873,0.25,u,699,low_ff,950.429,brut_brot,false,true,true
mixed,2,488,0.806,1.0,0.25,o,659,low_f0,951.597,tut_tot,true,true,true
mixed,2,489,1.0,0.873,0.5,u,669,low_ff,952.789,zug_zog,false,true,true
mixed,2,490,1.0,1.146,1.0,o,779,high_ff,954.077,kur_chor,true,true,true
mixed,2,491,1.24,1.0,1.0,o,781,high_f0,955.373,bug_bog,true,true,true
mixed,2,492,1.0,1.0,0.25,u,709,center,956.605,brut_brot,false,true,true
mixed,2,493,1.0,0.873,0.5,u,731,low_ff,957.853,huhn_hohn,false,true,true
mixed,2,494,1.24,1.0,0.0,u,1141,high_f0,959.502,schuh_show,false,true,true
mixed,2,495,0.806,1.0,1.0,o,771,low_f0,960.781,zug_zog,true,true,true
mixed,2,496,1.0,1.146,0.25,o,909,high_ff,962.189,fuhr_vor,true,true,true
mixed,2,497,1.0,0.873,0.75,u,771,low_ff,963.477,huhn_hohn,false,true,true
mixed,2,498,1.24,1.0,0.5,u,680,high_f0,964.677,brut_brot,false,true,true
mixed,2,499,0.806,1.0,0.75,o,1232,low_f0,966.421,bug_bog,true,true,true
mixed,2,500,1.24,1.0,0.0,u,819,high_f0,967.749,fuhr_vor,false,true,true
mixed,2,501,1.0,0.873,0.0,u,771,low_ff,969.021,schuh_show,false,true,true
mixed,2,502,1.24,1.0,0.5,u,811,high_f0,970.341,ruhm_rom,false,true,true
mixed,2,503,0.806,1.0,0.25,o,749,low_f0,971.597,tut_tot,true,true,true
mixed,2,504,1.0,0.873,0.75,u,821,low_ff,972.933,zug_zog,false,true,true
mixed,2,505,1.24,1.0,1.0,u,1160,high_f0,974.589,ruhm_rom,false,true,true
mixed,2,506,1.0,0.873,0.5,u,949,low_ff,976.037,zug_zog,false,true,true
mixed,2,507,0.806,1.0,1.0,o,709,low_f0,977.252,tut_tot,true,true,true
mixed,2,508,1.0,1.0,0.25,u,760,center,978.531,kur_chor,false,true,true
mixed,2,509,1.24,1.0,0.0,u,840,high_f0,979.875,tut_tot,false,true,true
mixed,2,510,1.0,0.873,0.75,o,899,low_ff,981.276,schuh_show,true,true,true
mixed,2,511,1.0,1.0,0.75,o,939,center,982.715,zug_zog,true,true,true
mixed,2,512,1.0,0.873,1.0,u,811,low_ff,984.043,schuh_show,false,true,true
mixed,2,513,0.806,1.0,1.0,o,829,low_f0,985.395,brut_brot,true,true,true
mixed,2,514,1.24,1.0,0.75,u,1000,high_f0,986.899,ruhm_rom,false,true,true
mixed,2,515,1.0,0.873,0.25,u,1051,low_ff,988.468,schuh_show,false,true,true
mixed,2,516,0.806,1.0,0.5,o,880,low_f0,989.86,tut_tot,true,true,true
mixed,2,517,1.0,0.873,0.5,u,669,low_ff,991.043,brut_brot,false,true,true
mixed,2,518,1.0,1.0,0.5,o,680,center,992.252,kur_chor,true,true,true
mixed,2,519,0.806,1.0,0.25,u,869,low_f0,1008.652,fuhr_vor,false,true,true
mixed,2,520,1.0,1.146,0.5,o,640,high_ff,1009.803,kur_chor,true,true,true
mixed,2,521,1.0,1.0,0.75,o,861,center,1011.187,schuh_show,true,true,true
mixed,2,522,1.0,1.146,0.5,o,749,high_ff,1012.443,kur_chor,true,true,true
mixed,2,523,1.24,1.0,0.25,u,659,high_f0,1013.612,tut_tot,false,true,true
mixed,2,524,1.0,0.873,0.25,u,840,low_ff,1014.972,fuhr_vor,false,true,true
mixed,2,525,1.0,1.146,0.5,o,731,high_ff,1016.212,zug_zog,true,true,true
mixed,2,526,0.806,1.0,0.25,u,800,low_f0,1017.532,ruhm_rom,false,true,true
mixed,2,527,1.0,0.873,0.0,u,821,low_ff,1018.86,zug_zog,false,true,true
mixed,2,528,1.24,1.0,0.5,u,920,high_f0,1020.291,fuhr_vor,false,true,true
mixed,2,529,1.0,1.146,0.5,o,680,high_ff,1021.475,huhn_hohn,true,true,true
mixed,2,530,1.0,0.873,0.75,u,1059,low_ff,1023.043,schuh_show,false,true,true
mixed,2,531,1.24,1.0,0.0,u,891,high_f0,1024.458,fuhr_vor,false,true,true
mixed,2,532,1.0,0.873,0.5,u,581,low_ff,1025.546,bug_bog,false,true,true
mixed,2,533,1.24,1.0,1.0,u,789,high_f0,1026.835,tut_tot,false,true,true
mixed,2,534,1.0,1.146,1.0,o,840,high_ff,1028.187,fuhr_vor,true,true,true
mixed,2,535,0.806,1.0,0.5,o,760,low_f0,1029.46,zug_zog,true,true,true
mixed,2,536,1.0,0.873,1.0,o,712,low_ff,1030.668,kur_chor,true,true,true
mixed,2,537,0.806,1.0,1.0,o,789,low_f0,1031.955,schuh_show,true,true,true
mixed,2,538,1.24,1.0,0.5,u,688,high_f0,1033.155,huhn_hohn,false,true,true
mixed,2,539,0.806,1.0,0.75,o,669,low_f0,1034.339,kur_chor,true,true,true
mixed,2,540,1.0,1.146,0.5,o,731,high_ff,1035.571,ruhm_rom,true,true,true
mixed,2,541,1.24,1.0,0.0,u,691,high_f0,1036.761,brut_brot,false,true,true
mixed,2,542,0.806,1.0,0.0,u,792,low_f0,1038.066,huhn_hohn,false,true,true
mixed,2,543,1.0,1.146,1.0,o,699,high_ff,1039.274,bug_bog,true,true,true
mixed,2,544,1.0,1.0,0.75,o,1019,center,1040.794,ruhm_rom,true,true,true
mixed,2,545,1.0,0.873,0.0,u,2299,low_ff,1043.601,huhn_hohn,false,true,true
mixed,2,546,0.806,1.0,0.5,o,851,low_f0,1044.97,brut_brot,true,true,true
mixed,2,547,1.0,1.0,0.25,u,669,center,1046.153,tut_tot,false,true,true
mixed,2,548,1.24,1.0,0.0,u,880,high_f0,1047.531,fuhr_vor,false,true,true
mixed,2,549,1.0,0.873,0.25,u,701,low_ff,1048.738,bug_bog,false,true,true
mixed,2,550,1.0,1.146,1.0,o,771,high_ff,1050.001,huhn_hohn,true,true,true
mixed,2,551,0.806,1.0,0.75,o,949,low_f0,1051.474,ruhm_rom,true,true,true
mixed,2,552,1.0,1.146,0.25,u,739,high_ff,1052.714,brut_brot,false,true,true
mixed,2,553,1.24,1.0,0.5,u,1000,high_f0,1054.226,fuhr_vor,false,true,true
mixed,2,554,1.0,1.146,0.0,o,731,high_ff,1055.458,huhn_hohn,true,true,true
