experiment,participant,trial_number,f0,ff,morph,response,rt,speaker,context_speaker,time_elapsed,wordpair,precursor,response_o,rt_valid,trial_valid
precursors,61,1,1.24,1.0,0.25,u,1027,high_f0,high_f0,296.011,huhn_hohn,001 Alice fing an sich zu langweilen,false,true,true
precursors,61,2,1.0,1.0,0.5,o,906,center,high_ff,301.665,ruhm_rom,002 Sie sass schon lange,true,true,true
precursors,61,3,1.0,0.873,0.75,o,1004,low_ff,low_ff,309.354,bug_bog,003 Das Buch das ihre Schwester las,true,true,true
precursors,61,4,1.24,1.0,0.5,o,819,high_f0,high_f0,314.849,ruhm_rom,004 Und was nuetzen Buecher,true,true,true
precursors,61,5,0.806,1.0,0.5,o,749,low_f0,low_f0,327.889,brut_brot,005 Sie ueberlegte sich eben,true,true,true
precursors,61,6,1.24,1.0,0.75,o,749,high_f0,high_f0,332.008,ruhm_rom,006 Dies war grade nicht sehr merkwuerdig,true,true,true
precursors,61,7,1.0,0.873,0.25,o,871,low_ff,low_ff,341.881,bug_bog,007 Alice fand es auch nicht sehr ausserordentlich,true,true,true
precursors,61,8,1.0,1.0,0.5,o,888,center,low_f0,348.856,brut_brot,008 Als sie es spaeter wieder ueberlegte,true,true,true
precursors,61,9,1.0,1.146,0.25,o,871,high_ff,high_ff,353.28,ruhm_rom,009 Doch zur Zeit,true,true,true
precursors,61,10,1.0,1.0,0.5,o,964,center,low_f0,363.328,zug_zog,010 Aber als das Kaninchen,true,true,true
precursors,61,11,1.0,1.146,0.5,o,1068,high_ff,high_ff,371.799,tut_tot,011 Denn es war ihr doch noch nie vorgekommen,true,true,true
precursors,61,12,0.806,1.0,0.5,u,1219,low_f0,low_f0,383.607,kur_chor,012 Vor Neugierde brennend,false,true,true
precursors,61,13,1.24,1.0,0.75,o,871,high_f0,high_f0,393.062,zug_zog,013 Den naechsten Augenblick war sie ihm nach,true,true,true
precursors,61,14,1.0,1.0,0.5,u,877,center,high_ff,401.159,fuhr_vor,014 Der Eingang zum Kaninchenbau,false,true,true
precursors,61,15,0.806,1.0,0.5,u,1010,low_f0,low_f0,411.806,schuh_show,015 Ehe Alice noch den Gedanken fassen konnte,false,true,true
precursors,61,16,1.24,1.0,0.25,u,749,high_f0,high_f0,424.494,tut_tot,016 Entweder musste der Brunnen sehr tief sein,false,true,true
precursors,61,17,1.0,1.146,0.25,o,917,high_ff,high_ff,433.453,ruhm_rom,017 Zuerst versuchte sie hinunter zu sehen,true,true,true
precursors,61,18,1.0,0.873,0.75,u,906,low_ff,low_ff,441.693,zug_zog,018 Da besah sie die Waende des Brunnens,false,true,true
precursors,61,19,0.806,1.0,0.75,o,1155,low_f0,low_f0,448.436,huhn_hohn,019 Hier und da erblickte sie Landkarten,true,true,true
precursors,61,20,1.24,1.0,0.75,u,888,high_f0,high_f0,459.66,tut_tot,020 Sie nahm im Vorbeifallen,false,true,true
precursors,61,21,0.806,1.0,0.75,u,871,low_f0,low_f0,466.363,schuh_show,021 Sie wollte es nicht fallen lassen,false,true,true
precursors,61,22,1.0,0.873,0.5,u,900,low_ff,low_ff,473.228,fuhr_vor,022 Und es gelang ihr es in einen anderen Schrank,false,true,true
precursors,61,23,1.0,1.0,0.5,o,1236,center,high_ff,482.507,huhn_hohn,023 Nun dachte Alice bei sich,true,true,true
precursors,61,24,1.24,1.0,0.5,u,819,high_f0,high_f0,487.035,tut_tot,024 Wie mutig sie mich zuhause,false,true,true
precursors,61,25,1.0,1.146,0.75,o,1097,high_ff,high_ff,493.594,bug_bog,025 Ich wuerde nicht viel Redens machen,true,true,true
precursors,61,26,1.24,1.0,0.25,u,882,high_f0,high_f0,496.81,ruhm_rom,026 Was sehr wahrscheinlich war,false,true,true
precursors,61,27,0.806,1.0,0.5,u,1086,low_f0,low_f0,501.179,huhn_hohn,027 Hinunter hinunter hinunter,false,true,true
precursors,61,28,1.0,1.146,0.25,u,1045,high_ff,high_ff,506.346,fuhr_vor,028 Wieviele Meilen ich wohl jetzt,false,true,true
precursors,61,29,0.806,1.0,0.25,u,801,low_f0,low_f0,510.61,brut_brot,029 Ich muss ungefaehr am Mittelpunkt,false,true,true
precursors,61,30,1.0,0.873,0.5,u,697,low_ff,low_ff,516.242,kur_chor,030 Lass sehen das waeren,false,true,true
precursors,61,31,1.24,1.0,0.75,u,784,high_f0,high_f0,521.481,bug_bog,031 Ihr muesst wissen Alice hatte,false,true,true
precursors,61,32,0.806,1.0,0.75,u,679,low_f0,low_f0,531.121,kur_chor,032 Und auch wenn dies keine sehr gute,false,true,true
precursors,61,33,1.0,1.146,0.5,o,755,high_ff,high_ff,539.08,zug_zog,033 Ja das ist ungefaehr die Entfernung,true,true,true
precursors,61,34,1.0,1.0,0.5,u,1022,center,low_f0,550.873,bug_bog,034 Alice hatte nicht den geringsten Begriff,false,true,true
precursors,61,35,1.0,0.873,0.75,u,737,low_ff,low_ff,569.824,tut_tot,035 Ob ich wohl ganz durch die Erde,false,true,true
precursors,61,36,1.0,1.146,0.5,u,708,high_ff,high_ff,575.663,fuhr_vor,036 Wie komisch das sein wird,false,true,true
precursors,61,37,1.0,1.0,0.5,u,813,center,high_f0,579.311,kur_chor,037 Die Antipathien,false,true,true
precursors,61,38,1.0,1.146,0.5,o,644,high_ff,high_ff,586.064,zug_zog,038 Diesmal war es ihr ganz lieb,true,true,true
precursors,61,39,1.0,0.873,0.25,u,679,low_ff,low_ff,590.951,tut_tot,039 Aber natuerlich werde ich sie,false,true,true
precursors,61,40,1.0,1.0,0.5,o,749,center,low_f0,596.472,huhn_hohn,040 Bitte liebe Dame ist dies,true,true,true
precursors,61,41,1.0,1.146,0.5,u,1173,high_ff,high_ff,603.462,schuh_show,041 Und sie versuchte dabei zu knixen,false,true,true
precursors,61,42,1.0,0.873,0.5,u,981,low_ff,low_ff,606.967,ruhm_rom,042 Koenntet ihr das fertig kriegen,false,true,true
precursors,61,43,0.806,1.0,0.5,o,778,low_f0,low_f0,612.574,zug_zog,043 Aber sie werden mich fuer ein,true,true,true
precursors,61,44,1.24,1.0,0.25,u,668,high_f0,high_f0,618.495,tut_tot,044 Nein es geht nicht an,false,true,true
precursors,61,45,1.0,1.146,0.25,u,824,high_ff,high_ff,622.534,kur_chor,045 Hinunter hinunter,false,true,true
precursors,61,46,1.24,1.0,0.75,u,906,high_f0,high_f0,628.734,fuhr_vor,046 Sie konnte nichts weiter tun,false,true,true
precursors,61,47,1.0,0.873,0.75,u,1445,low_ff,low_ff,633.317,huhn_hohn,047 Dinah wird mich gewiss heut,false,true,true
precursors,61,48,0.806,1.0,0.25,u,935,low_f0,low_f0,636.293,zug_zog,048 Dinah war die Katze,false,true,true
precursors,61,49,1.0,1.0,0.5,u,731,center,low_ff,641.678,tut_tot,049 Ich hoffe sie werden ihren Napf,false,true,true
precursors,61,50,1.24,1.0,0.5,u,946,high_f0,high_f0,647.421,zug_zog,050 Dinah Miez ich wollte,false,true,true
precursors,61,51,1.0,0.873,0.75,u,1080,low_ff,low_ff,654.789,huhn_hohn,051 Mir ist nur bange,false,true,true
precursors,61,52,1.24,1.0,0.75,u,772,high_f0,high_f0,659.373,bug_bog,052 Die wird es hier in der Luft,false,true,true
precursors,61,53,0.806,1.0,0.75,o,923,low_f0,low_f0,662.925,ruhm_rom,053 Und Katzen fressen doch Spatzen,true,true,true
precursors,61,54,1.0,1.0,0.5,u,842,center,high_f0,668.909,kur_chor,054 Hier wurde Alice etwas schlaefrig,false,true,true
precursors,61,55,1.0,1.146,0.5,o,1254,high_ff,high_ff,672.844,tut_tot,055 Fressen Katzen gern Spatzen,true,true,true
precursors,61,56,0.806,1.0,0.5,u,813,low_f0,low_f0,676.332,bug_bog,056 Fressen Spatzen gern Katzen,false,true,true
precursors,61,57,1.0,0.873,0.25,u,755,low_ff,low_ff,683.628,huhn_hohn,057 Und da ihr niemand zu antworten brauchte,false,true,true
precursors,61,58,1.0,1.146,0.75,o,900,high_ff,high_ff,694.156,kur_chor,058 Sie fuehlte dass sie einschlief,true,true,true
precursors,61,59,1.24,1.0,0.75,u,964,high_f0,high_f0,700.187,fuhr_vor,059 Nun Dinah sage die Wahrheit,false,true,true
precursors,61,60,1.0,1.0,0.5,o,882,center,low_ff,710.403,ruhm_rom,060 Da mit einem Male,true,true,true
precursors,61,61,1.0,1.146,0.75,o,853,high_ff,high_ff,713.906,tut_tot,061 Alice hatte sich gar nicht weh getan,true,true,true
precursors,61,62,1.24,1.0,0.25,u,998,high_f0,high_f0,720.05,bug_bog,062 Sie sprang sogleich auf,false,true,true
precursors,61,63,1.0,1.146,0.25,u,1039,high_ff,high_ff,728.138,brut_brot,063 Vor ihr lag ein zweiter langer Gang,false,true,true
precursors,61,64,0.806,1.0,0.25,u,894,low_f0,low_f0,732.018,tut_tot,064 Es war kein Augenblick zu verlieren,false,true,true
precursors,61,65,1.0,0.873,0.25,u,1161,low_ff,low_ff,739.402,zug_zog,065 Fort rannte Alice wie der Wind,false,true,true
precursors,61,66,1.0,1.146,0.75,o,1184,high_ff,high_ff,743.737,fuhr_vor,066 Oh Ohren und Schnurrbart,true,true,true
precursors,61,67,0.806,1.0,0.75,o,685,low_f0,low_f0,750.882,tut_tot,067 Sie war dicht hinter ihm,true,true,true
precursors,61,68,1.0,1.0,0.5,u,1219,center,low_ff,759.809,fuhr_vor,068 Sie befand sich in einem langen niedrigen Korridor,false,true,true
precursors,61,69,1.0,1.146,0.5,o,998,high_ff,high_ff,781.393,schuh_show,069 Zu beiden Seiten des Korridors,true,true,true
precursors,61,70,1.0,1.0,0.5,o,1016,center,low_ff,787.496,bug_bog,070 Alice versuchte jede Tuer,true,true,true
precursors,61,71,0.806,1.0,0.5,u,923,low_f0,low_f0,794.944,fuhr_vor,071 Endlich ging sie traurig in der Mitte entlang,false,true,true
precursors,61,72,1.24,1.0,0.75,u,917,high_f0,high_f0,801.759,brut_brot,072 Ploetzlich stand sie vor einem,false,true,true
precursors,61,73,1.0,0.873,0.5,u,1027,low_ff,low_ff,813.08,schuh_show,073 Es war nichts darauf als ein,false,true,true
precursors,61,74,1.0,1.146,0.75,o,935,high_ff,high_ff,819.663,ruhm_rom,074 Aber ach entweder,true,true,true
precursors,61,75,0.806,1.0,0.75,u,1033,low_f0,low_f0,823.967,fuhr_vor,075 Kurz er passte zu keiner einzigen,false,true,true
precursors,61,76,1.0,0.873,0.5,o,1486,low_ff,low_ff,837.431,huhn_hohn,076 Jedoch als sie das zweite Mal,true,true,true
precursors,61,77,1.0,1.0,0.5,o,1631,center,high_f0,845.021,zug_zog,077 Sie steckte das goldene Schluesselchen,true,true,true
precursors,61,78,1.0,0.873,0.75,o,772,low_ff,low_ff,853.134,ruhm_rom,078 Alice schloss die Tuer auf,true,true,true
precursors,61,79,1.24,1.0,0.5,u,1039,high_f0,high_f0,860.445,brut_brot,079 Sie kniete nieder,false,true,true
precursors,61,80,0.806,1.0,0.25,u,743,low_f0,low_f0,870.101,kur_chor,080 Wie wuenschte sie aus dem dunklen Korridor,false,true,true
precursors,61,81,1.0,0.873,0.25,u,906,low_ff,low_ff,875.012,fuhr_vor,081 Aber sie konnte kaum den Kopf,false,true,true
precursors,61,82,1.0,1.0,0.5,u,807,center,high_ff,882.597,tut_tot,082 Und wenn auch mein Kopf,false,true,true
precursors,61,83,1.0,0.873,0.5,u,906,low_ff,low_ff,887.477,brut_brot,083 Oh ich moechte mich zusammenschieben,false,true,true
precursors,61,84,0.806,1.0,0.75,u,1109,low_f0,low_f0,892.91,bug_bog,084 Das geht ganz gewiss,false,true,true
precursors,61,85,1.24,1.0,0.5,u,650,high_f0,high_f0,901.892,kur_chor,085 Denn es war kuerzlich so viel,false,true,true
precursors,61,86,1.0,1.146,0.5,o,644,high_ff,high_ff,907.253,huhn_hohn,086 Es schien ihr ganz unnuetz,true,true,true
precursors,61,87,1.24,1.0,0.25,u,772,high_f0,high_f0,920.116,brut_brot,087 Daher ging sie zum Tisch zurueck,false,true,true
precursors,61,88,1.0,1.146,0.25,o,1283,high_ff,high_ff,924.491,schuh_show,088 Diesmal fand sie ein Flaeschchen darauf,true,true,true
precursors,61,89,1.24,1.0,0.75,u,1178,high_f0,high_f0,929.626,kur_chor,089 Das stand gewiss vorhin,false,true,true
precursors,61,90,1.0,0.873,0.5,o,923,low_ff,low_ff,939.155,huhn_hohn,090 Und um den Hals des Flaeschchens,true,true,true
precursors,61,91,0.806,1.0,0.5,o,848,low_f0,low_f0,947.21,ruhm_rom,091 Es war schnell gesagt trinke mich,true,true,true
precursors,61,92,1.0,1.0,0.5,u,1260,center,low_ff,954.937,brut_brot,092 Nein ich werde erst nachsehen,false,true,true
precursors,61,93,1.24,1.0,0.75,u,1091,high_f0,high_f0,967.905,schuh_show,093 Denn sie hatte mehrere huebsche Geschichten,false,true,true
precursors,61,94,1.0,1.146,0.25,u,1004,high_ff,high_ff,974.121,brut_brot,094 Nur weil sie nicht an die Warnungen,false,true,true
precursors,61,95,0.806,1.0,0.75,o,755,low_f0,low_f0,979.506,kur_chor,095 Zum Beispiel dass ein rotgluehendes,true,true,true
precursors,61,96,1.0,0.873,0.75,u,1509,low_ff,low_ff,986.601,zug_zog,096 Und dass wenn man sich mit einem Messer,false,true,true
precursors,61,97,1.0,1.0,0.5,u,993,center,low_f0,996.674,kur_chor,097 Und sie hatte nicht vergessen,false,true,true
precursors,61,98,1.24,1.0,0.25,u,848,high_f0,high_f0,1000.858,bug_bog,098 Diese Flasche jedoch,false,true,true
precursors,61,99,1.0,0.873,0.75,u,981,low_ff,low_ff,1004.506,schuh_show,099 Daher wagte Alice zu kosten,false,true,true
precursors,61,100,1.24,1.0,0.5,u,865,high_f0,high_f0,1009.626,ruhm_rom,100 Und da es ihr so gut schmeckte,false,true,true
precursors,61,101,0.806,1.0,0.25,u,842,low_f0,low_f0,1017.41,fuhr_vor,101 Es war eigentlich wie ein Gemisch,false,true,true
precursors,61,102,1.24,1.0,0.25,u,1057,high_f0,high_f0,1037.099,zug_zog,102 Was fuer ein komisches Gefuehl,false,true,true
precursors,61,103,0.806,1.0,0.25,u,923,low_f0,low_f0,1041.227,schuh_show,103 Ich gehe gewiss zu,false,true,true
precursors,61,104,1.0,1.146,0.75,o,993,high_ff,high_ff,1044.603,fuhr_vor,104 Und so war es in der Tat,true,true,true
precursors,61,105,1.0,0.873,0.25,u,848,low_ff,low_ff,1056.74,bug_bog,105 Jetzt war sie nur noch zehn Zoll hoch,false,true,true
precursors,61,106,1.0,1.146,0.75,o,778,high_ff,high_ff,1063.1,huhn_hohn,106 Doch erst wartete sie einige Minuten,true,true,true
precursors,61,107,1.0,1.0,0.5,o,1358,center,low_ff,1067.236,zug_zog,107 Sie war einigermassen aengstlich,true,true,true
precursors,61,108,1.0,1.146,0.75,o,1022,high_ff,high_ff,1075.132,schuh_show,108 Denn es koennte damit aufhoeren,true,true,true
precursors,61,109,1.0,0.873,0.75,u,859,low_ff,low_ff,1078.869,tut_tot,109 Mich wundert wie ich dann aussaehe,false,true,true
precursors,61,110,1.0,1.0,0.5,u,848,center,high_ff,1086.548,zug_zog,110 Und sie versuchte sich vorzustellen,false,true,true
precursors,61,111,0.806,1.0,0.75,o,766,low_f0,low_f0,1091.341,ruhm_rom,111 Aber sie konnte sich nicht erinnern,true,true,true
precursors,61,112,1.0,1.0,0.5,u,1109,center,low_ff,1099.285,brut_brot,112 Nach einer Weile als sie merkte,false,true,true
precursors,61,113,0.806,1.0,0.25,u,877,low_f0,low_f0,1107.189,bug_bog,113 Aber arme Alice,false,true,true
precursors,61,114,1.24,1.0,0.25,u,813,high_f0,high_f0,1115.086,huhn_hohn,114 Sie ging zum Tisch zurueck,false,true,true
precursors,61,115,1.0,1.146,0.5,o,1434,high_ff,high_ff,1126.046,kur_chor,115 Sie sah es ganz deutlich,true,true,true
precursors,61,116,0.806,1.0,0.25,u,911,low_f0,low_f0,1133.606,zug_zog,116 Und als sie sich ganz muede gearbeitet,false,true,true
precursors,61,117,1.0,1.0,0.5,u,749,center,high_f0,1140.07,fuhr_vor,117 Still was nuetzt es,false,true,true
precursors,61,118,1.0,0.873,0.5,u,720,low_ff,low_ff,1144.246,bug_bog,118 Ich rate dir augenblicklich,false,true,true
precursors,61,119,1.0,1.0,0.5,u,743,center,high_ff,1150.263,brut_brot,119 Sie gab sich oft sehr guten Rat,false,true,true
precursors,61,120,1.24,1.0,0.25,u,656,high_f0,high_f0,1156.254,kur_chor,120 Manchmal schalt sie sich selbt,false,true,true
precursors,61,121,1.0,0.873,0.5,u,987,low_ff,low_ff,1167.951,schuh_show,121 Und einmal erinnerte sie sich,false,true,true
precursors,61,122,1.0,1.0,0.5,u,929,center,low_f0,1174.527,fuhr_vor,122 Denn dieses eigentuemliche Kind,false,true,true
precursors,61,123,1.0,0.873,0.75,u,877,low_ff,low_ff,1182.176,schuh_show,123 Aber jetzt hilft es nichts,false,true,true
precursors,61,124,1.24,1.0,0.5,u,755,high_f0,high_f0,1187.936,fuhr_vor,124 Ach es ist ja kaum genug von mir uebrig,false,true,true
precursors,61,125,0.806,1.0,0.25,u,952,low_f0,low_f0,1194.016,bug_bog,125 Bald fiel ihr Auge,false,true,true
precursors,61,126,1.24,1.0,0.25,u,882,high_f0,high_f0,1204.568,fuhr_vor,126 Sie oeffnete sie,false,true,true
precursors,61,127,1.0,1.146,0.5,o,1045,high_ff,high_ff,1212.576,ruhm_rom,127 Gut ich will ihn essen,true,true,true
precursors,61,128,0.806,1.0,0.5,u,662,low_f0,low_f0,1218.121,bug_bog,128 Wenn ich aber kleiner davon werde,false,true,true
precursors,61,129,1.0,1.146,0.25,o,714,high_ff,high_ff,1224.216,huhn_hohn,129 So auf jeden Fall gelange ich,true,true,true
precursors,61,130,1.24,1.0,0.25,u,1103,high_f0,high_f0,1232.001,fuhr_vor,130 Sie ass ein bisschen,false,true,true
precursors,61,131,1.0,1.0,0.5,u,1248,center,low_ff,1241.129,schuh_show,131 Dabei hielt sie die Hand pruefend,false,true,true
precursors,61,132,1.0,1.146,0.75,o,1010,high_ff,high_ff,1245.978,zug_zog,132 Freilich geschieht dies gewoehnlich,true,true,true
precursors,61,133,1.24,1.0,0.25,u,894,high_f0,high_f0,1255.137,ruhm_rom,133 Aber Alice war schon so an wunderbare,false,true,true
precursors,61,134,0.806,1.0,0.25,u,888,low_f0,low_f0,1260.506,schuh_show,134 Sie machte sich also daran,false,true,true
precursors,61,135,1.24,1.0,0.5,u,749,high_f0,high_f0,1264.801,bug_bog,135 Verquerer und verquerer,false,true,true
precursors,61,136,0.806,1.0,0.75,o,900,low_f0,low_f0,1285.883,tut_tot,136 Sie war so ueberrascht,true,true,true
precursors,61,137,1.0,1.146,0.75,o,737,high_ff,high_ff,1292.202,zug_zog,137 Jetzt werde ich auseinandergeschoben,true,true,true
precursors,61,138,1.0,0.873,0.25,u,656,low_ff,low_ff,1295.258,kur_chor,138 Lebt wohl Fuesse,false,true,true
precursors,61,139,1.0,1.146,0.25,u,778,high_ff,high_ff,1304.099,fuhr_vor,139 Denn als sie auf ihre Fuesse hinab,false,true,true
precursors,61,140,1.0,0.873,0.5,u,633,low_ff,low_ff,1311.003,kur_chor,140 Oh meine armen Fuesschen,false,true,true
precursors,61,141,1.0,1.0,0.5,u,824,center,high_ff,1314.724,zug_zog,141 Denn ich kann es unmoeglich tun,false,true,true
precursors,61,142,0.806,1.0,0.25,o,708,low_f0,low_f0,1319.491,ruhm_rom,142 Ich bin viel zu weit ab,true,true,true
precursors,61,143,1.0,1.0,0.5,o,842,center,high_f0,1323.475,huhn_hohn,143 Ihr muesst sehen wie ihr fertig werdet,true,true,true
precursors,61,144,1.0,0.873,0.5,u,952,low_ff,low_ff,1331.452,zug_zog,144 Aber gut muss ich zu ihnen sein,false,true,true
precursors,61,145,0.806,1.0,0.25,u,749,low_f0,low_f0,1338.164,tut_tot,145 Lass mal sehen ich will ihnen,false,true,true
precursors,61,146,1.0,1.146,0.75,o,731,high_ff,high_ff,1342.556,kur_chor,146 Und sie dachte sich aus,true,true,true
precursors,61,147,1.0,1.0,0.5,u,1091,center,low_f0,1348.604,schuh_show,147 Wie drollig es sein wird,false,true,true
precursors,61,148,1.24,1.0,0.75,u,923,high_f0,high_f0,1352.669,brut_brot,148 Und wie komisch die Adresse,false,true,true
precursors,61,149,0.806,1.0,0.75,o,772,low_f0,low_f0,1357.236,zug_zog,149 Gerade in dem Augenblick stiess,true,true,true
precursors,61,150,1.0,0.873,0.25,u,697,low_ff,low_ff,1361.524,schuh_show,150 Sie war in der Tat,false,true,true
precursors,61,151,1.0,1.0,0.5,u,940,center,high_ff,1368.093,bug_bog,151 Und sie nahm sogleich den goldenen Schluessel,false,true,true
precursors,61,152,1.24,1.0,0.25,u,993,high_f0,high_f0,1377.989,zug_zog,152 Arme Alice das hoechste,false,true,true
precursors,61,153,1.0,0.873,0.75,u,1231,low_ff,low_ff,1383.174,brut_brot,153 Aber an durchgehen war weniger,false,true,true
precursors,61,154,1.0,1.0,0.5,u,871,center,low_f0,1387.741,bug_bog,154 Sie setzte sich hin,false,true,true
precursors,61,155,1.24,1.0,0.75,o,888,high_f0,high_f0,1391.525,kur_chor,155 Du solltest dich schaemen,true,true,true
precursors,61,156,0.806,1.0,0.5,u,1202,low_f0,low_f0,1396.678,tut_tot,156 So ein grosses Maedchen,false,true,true
precursors,61,157,1.0,1.146,0.25,u,952,high_ff,high_ff,1400.341,kur_chor,157 Hoere gleich auf,false,true,true
precursors,61,158,1.0,1.0,0.5,u,1927,center,high_f0,1410.999,schuh_show,158 Aber sie weinte trotzdem fort,false,true,true
precursors,61,159,1.0,1.146,0.25,u,1091,high_ff,high_ff,1417.302,bug_bog,159 Er war ungefaehr vier Zoll tief,false,true,true
precursors,61,160,1.24,1.0,0.75,o,726,high_f0,high_f0,1426.367,zug_zog,160 Nach einem Weilchen hoerte sie,true,true,true
precursors,61,161,1.0,0.873,0.25,u,1062,low_ff,low_ff,1437.768,brut_brot,161 Es war das weisse Kaninchen,false,true,true
precursors,61,162,1.24,1.0,0.5,u,1364,high_f0,high_f0,1443.343,zug_zog,162 Es trippelte in grosser Eile,false,true,true
precursors,61,163,1.0,1.0,0.5,u,958,center,low_f0,1449.992,brut_brot,163 Oh die Herzogin,false,true,true
precursors,61,164,1.0,0.873,0.75,u,871,low_ff,low_ff,1456.191,ruhm_rom,164 Alice war so ratlos,false,true,true
precursors,61,165,1.24,1.0,0.5,u,1126,high_f0,high_f0,1465.257,schuh_show,165 Als das Kaninchen daher in ihre Naehe,false,true,true
precursors,61,166,1.0,1.146,0.75,o,935,high_ff,high_ff,1475.561,huhn_hohn,166 Das Kaninchen fuhr zusammen,true,true,true
precursors,61,167,0.806,1.0,0.5,u,772,low_f0,low_f0,1479.88,kur_chor,167 Alice hob den Faecher,false,true,true
precursors,61,168,1.24,1.0,0.25,u,737,high_f0,high_f0,1484.704,schuh_show,168 Wunderbar wie seltsam,false,true,true
precursors,61,169,1.0,1.0,0.5,u,714,center,high_ff,1488.505,kur_chor,169 Und gestern war es ganz,false,true,true
precursors,61,170,0.806,1.0,0.75,o,830,low_f0,low_f0,1507.626,bug_bog,170 Ob ich wohl in der Nacht,true,true,true
precursors,61,171,1.0,1.0,0.5,u,824,center,high_ff,1512.705,tut_tot,171 Lass mal sehen,false,true,true
precursors,61,172,1.0,0.873,0.25,u,650,low_ff,low_ff,1518.57,schuh_show,172 Es kommt mir fast vor,false,true,true
precursors,61,173,1.0,1.146,0.75,o,662,high_ff,high_ff,1525.209,bug_bog,173 Aber wenn ich nicht dieselbe bin,true,true,true
precursors,61,174,0.806,1.0,0.5,o,865,low_f0,low_f0,1528.457,ruhm_rom,174 Ja das ist das Raetsel,true,true,true
precursors,61,175,1.24,1.0,0.75,u,656,high_f0,high_f0,1537.738,tut_tot,175 So ging sie in Gedanken alle Kinder,false,true,true
precursors,61,176,0.806,1.0,0.75,o,766,low_f0,low_f0,1545.842,zug_zog,176 Ich bin sicherlich nicht Ida,true,true,true
precursors,61,177,1.0,1.146,0.5,o,749,high_ff,high_ff,1555.115,bug_bog,177 Und bestimmt kann ich nicht Clara sein,true,true,true
precursors,61,178,1.24,1.0,0.25,u,737,high_f0,high_f0,1562.851,brut_brot,178 Ausserdem sie ist sie selbst,false,true,true
precursors,61,179,1.0,1.0,0.5,u,813,center,low_ff,1568.435,kur_chor,179 Ich will versuchen,false,true,true
precursors,61,180,0.806,1.0,0.5,u,900,low_f0,low_f0,1575.299,zug_zog,180 Lass sehen vier mal,false,true,true
precursors,61,181,1.0,1.0,0.5,o,1480,center,low_ff,1582.988,ruhm_rom,181 Und vier mal sieben ist,true,true,true
precursors,61,182,1.0,1.146,0.5,o,627,high_ff,high_ff,1589.323,bug_bog,182 Aber das Einmaleins,true,true,true
precursors,61,183,1.24,1.0,0.25,u,935,high_f0,high_f0,1596.717,schuh_show,183 London ist die Hauptstadt,false,true,true
precursors,61,184,1.0,0.873,0.25,u,801,low_ff,low_ff,1600.652,kur_chor,184 Nein ich wette das ist alles falsch,false,true,true
precursors,61,185,1.0,1.146,0.5,o,789,high_ff,high_ff,1604.148,huhn_hohn,185 Ich muss in Clara,true,true,true
precursors,61,186,0.806,1.0,0.75,u,1068,low_f0,low_f0,1609.933,brut_brot,186 Ich will doch mal sehen,false,true,true
precursors,61,187,1.0,0.873,0.5,u,778,low_ff,low_ff,1617.044,tut_tot,187 Und sie faltete die Haende,false,true,true
precursors,61,188,1.0,1.146,0.25,o,528,high_ff,high_ff,1623.469,huhn_hohn,188 Aber ihre Stimme klang rauh,true,true,true
precursors,61,189,0.806,1.0,0.5,u,952,low_f0,low_f0,1629.133,brut_brot,189 Bei einem Wirte,false,true,true
precursors,61,190,1.0,1.0,0.5,u,969,center,high_ff,1634.877,kur_chor,190 Ein Bienennest,false,true,true
precursors,61,191,1.0,0.873,0.75,u,1004,low_ff,low_ff,1639.757,bug_bog,191 Es war der grimme Zottelbaer,false,true,true
precursors,61,192,0.806,1.0,0.75,o,993,low_f0,low_f0,1645.126,fuhr_vor,192 Mit suessem Honigseim,true,true,true
precursors,61,193,1.0,1.0,0.5,u,882,center,high_f0,1653.301,zug_zog,193 Das kommt mir gar nicht richtig vor,false,true,true
precursors,61,194,0.806,1.0,0.25,u,906,low_f0,low_f0,1664.894,fuhr_vor,194 Ich muss doch Clara sein,false,true,true
precursors,61,195,1.0,1.146,0.75,o,1219,high_ff,high_ff,1672.07,brut_brot,195 Nein das habe ich mir vorgenommen,true,true,true
precursors,61,196,1.0,0.873,0.5,u,795,low_ff,low_ff,1679.783,ruhm_rom,196 Es soll ihnen nichts helfen,false,true,true
precursors,61,197,1.24,1.0,0.5,u,807,high_f0,high_f0,1684.678,huhn_hohn,197 Ich will nur hinaufsehen,false,true,true
precursors,61,198,1.0,1.0,0.5,u,1248,center,low_ff,1691.263,schuh_show,198 Sagt mir das erst,false,true,true
precursors,61,199,1.0,1.146,0.75,o,935,high_ff,high_ff,1696.863,tut_tot,199 Wenn nicht so will ich hier,true,true,true
precursors,61,200,0.806,1.0,0.25,u,714,low_f0,low_f0,1703.359,brut_brot,200 Aber oh weh schluchzte Alice,false,true,true
precursors,61,201,1.0,1.146,0.5,u,1202,high_ff,high_ff,1708.087,kur_chor,201 Es ist mir so langweilig,false,true,true
precursors,61,202,1.0,0.873,0.25,u,842,low_ff,low_ff,1720.08,huhn_hohn,202 Als sie so sprach,false,true,true
precursors,61,203,1.0,1.0,0.5,u,766,center,low_f0,1724.183,tut_tot,203 Wie habe ich das nur angefangen,false,true,true
precursors,61,204,1.0,1.146,0.5,o,1091,high_ff,high_ff,1743.073,brut_brot,204 Ich muss wieder klein geworden sein,true,true,true
precursors,61,205,0.806,1.0,0.75,u,1086,low_f0,low_f0,1752.432,schuh_show,205 Sie stand auf,false,true,true
precursors,61,206,1.0,1.0,0.5,u,911,center,high_ff,1756.385,huhn_hohn,206 Dabei schrumpfte sie noch zusehends ein,false,true,true
precursors,61,207,1.24,1.0,0.75,o,743,high_f0,high_f0,1761.793,ruhm_rom,207 Sie merkte bald dass die Ursache,true,true,true
precursors,61,208,1.0,0.873,0.75,u,772,low_ff,low_ff,1768.65,fuhr_vor,208 Sie warf sich schnell hin,false,true,true
precursors,61,209,1.0,1.0,0.5,u,935,center,high_ff,1778.089,schuh_show,209 Das war gluecklich davongekommen,false,true,true
precursors,61,210,0.806,1.0,0.25,u,615,low_f0,low_f0,1783.29,kur_chor,210 Und nun in den Garten,false,true,true
precursors,61,211,1.0,0.873,0.5,u,789,low_ff,low_ff,1792.065,bug_bog,211 Aber ach die kleine Tuer,false,true,true
precursors,61,212,0.806,1.0,0.25,u,650,low_f0,low_f0,1799.53,huhn_hohn,212 Und es ist schlimmer denn je,false,true,true
precursors,61,213,1.0,0.873,0.25,u,772,low_ff,low_ff,1803.89,tut_tot,213 Und ich sage es ist zu schlecht,false,true,true
precursors,61,214,1.0,1.146,0.5,u,772,high_ff,high_ff,1814.163,brut_brot,214 Wie sie diese Worte sprach glitt sie aus,false,true,true
precursors,61,215,1.0,1.0,0.5,u,853,center,high_f0,1823.474,ruhm_rom,215 Ihr erster Gedanke war,false,true,true
precursors,61,216,1.0,0.873,0.5,u,760,low_ff,low_ff,1832.323,brut_brot,216 Doch merkte sie bald,false,true,true
precursors,61,217,1.24,1.0,0.75,u,813,high_f0,high_f0,1840.867,schuh_show,217 Ich wuenschte ich haette nicht so viel,false,true,true
precursors,61,218,1.0,1.0,0.5,u,662,center,low_f0,1847.412,ruhm_rom,218 Jetzt werde ich wohl dafuer bestraft,false,true,true
precursors,61,219,1.0,1.146,0.25,u,888,high_ff,high_ff,1852.755,bug_bog,219 Das wird sonderbar sein,false,true,true
precursors,61,220,0.806,1.0,0.5,u,1004,low_f0,low_f0,1861.66,schuh_show,220 In dem Augenblick hoerte sie,false,true,true
precursors,61,221,1.0,0.873,0.25,u,900,low_ff,low_ff,1867.524,fuhr_vor,221 Erst glaubte sie es muesse ein Walross,false,true,true
precursors,61,222,0.806,1.0,0.25,u,900,low_f0,low_f0,1876.573,huhn_hohn,222 Dann aber besann sie sich,false,true,true
precursors,61,223,1.0,1.0,0.5,u,987,center,high_f0,1882.58,bug_bog,223 Wuerde es wohl etwas nuetzen,false,true,true
precursors,61,224,1.0,0.873,0.75,u,917,low_ff,low_ff,1888.573,kur_chor,224 Alles ist so wunderlich,false,true,true
precursors,61,225,0.806,1.0,0.75,o,726,low_f0,low_f0,1892.636,huhn_hohn,225 Auf jeden Fall ist Fragen umsonst,true,true,true
precursors,61,226,1.0,1.0,0.5,u,784,center,low_ff,1899.133,fuhr_vor,226 So fing sie an oh Maus,false,true,true
precursors,61,227,1.0,1.146,0.5,o,1190,high_ff,high_ff,1903.717,ruhm_rom,227 Ich bin vom Herumschwimmen,true,true,true
precursors,61,228,1.24,1.0,0.75,o,1521,high_f0,high_f0,1908.949,huhn_hohn,228 Alice dachte so wuerde eine Maus,true,true,true
precursors,61,229,1.0,0.873,0.25,u,836,low_ff,low_ff,1916.622,brut_brot,229 Die Maus sah sie etwas neugierig an,false,true,true
precursors,61,230,1.24,1.0,0.5,u,737,high_f0,high_f0,1920.701,huhn_hohn,230 Vielleicht versteht sie kein Englisch,false,true,true
precursors,61,231,1.0,0.873,0.5,u,830,low_ff,low_ff,1927.366,tut_tot,231 Es ist vielleicht eine franzoesische Maus,false,true,true
precursors,61,232,1.0,1.146,0.25,o,935,high_ff,high_ff,1935.886,zug_zog,232 Denn trotz ihrer Geschichtskenntnisse,true,true,true
precursors,61,233,0.806,1.0,0.75,u,964,low_f0,low_f0,1940.935,brut_brot,233 Sie sagte also auf Franzoesisch,false,true,true
precursors,61,234,1.0,0.873,0.75,u,668,low_ff,low_ff,1947.438,fuhr_vor,234 Die Maus sprang,false,true,true
precursors,61,235,1.0,1.0,0.5,u,639,center,low_f0,1954.096,tut_tot,235 Oh ich bitte um Verzeihung,false,true,true
precursors,61,236,1.0,1.146,0.5,o,1167,high_ff,high_ff,1958.599,fuhr_vor,236 Ich hatte ganz vergessen dass Sie,true,true,true
precursors,61,237,1.24,1.0,0.5,u,882,high_f0,high_f0,1979.2,brut_brot,237 Katzen nicht moegen,false,true,true
precursors,61,238,0.806,1.0,0.5,u,981,low_f0,low_f0,1984.119,fuhr_vor,238 Wuerdest du Katzen moegen,false,true,true
precursors,61,239,1.0,0.873,0.75,u,766,low_ff,low_ff,1991.232,kur_chor,239 Nein wohl kaum sagte Alice,false,true,true
precursors,61,240,1.0,1.0,0.5,u,1115,center,high_f0,1996.183,schuh_show,240 Und doch moechte ich dir unsere Katze,false,true,true
precursors,61,241,1.0,0.873,0.75,u,877,low_ff,low_ff,2001.936,brut_brot,241 Ich glaube du wuerdest Geschmack,false,true,true
precursors,61,242,1.24,1.0,0.25,u,673,high_f0,high_f0,2008.28,kur_chor,242 Sie ist so ein liebes,false,true,true
precursors,61,243,1.0,1.146,0.25,u,1097,high_ff,high_ff,2015.633,tut_tot,243 Sie sitzt und spinnt so nett,false,true,true
precursors,61,244,1.24,1.0,0.5,u,697,high_f0,high_f0,2019.288,kur_chor,244 Und sie ist so ein famoser Maeusefaenger,false,true,true
precursors,61,245,1.0,1.0,0.5,o,679,center,low_ff,2026.585,huhn_hohn,245 Oh ich bitte um Verzeihung sagte Alice wieder,true,true,true
precursors,61,246,1.24,1.0,0.5,u,871,high_f0,high_f0,2031.481,schuh_show,246 Alice dachte sie muesste sicherlich,false,true,true
precursors,61,247,1.0,0.873,0.5,u,743,low_ff,low_ff,2035.873,fuhr_vor,247 Wir wollen nicht mehr davon reden,false,true,true
precursors,61,248,1.0,1.0,0.5,u,1086,center,low_f0,2042.753,bug_bog,248 Wir wirklich entgegnete,false,true,true
precursors,61,249,1.0,1.146,0.25,o,1271,high_ff,high_ff,2047.361,zug_zog,249 Als ob ich je,true,true,true
precursors,61,250,1.0,1.0,0.5,u,755,center,high_f0,2051.97,brut_brot,250 Unsere Familie hat von jeher,false,true,true
precursors,61,251,0.806,1.0,0.25,o,2281,low_f0,low_f0,2057.666,ruhm_rom,251 Haessliche niedrige,true,true,true
precursors,61,252,1.24,1.0,0.5,u,708,high_f0,high_f0,2061.298,fuhr_vor,252 Lass mich ihren Namen,false,true,true
precursors,61,253,1.0,1.146,0.75,o,900,high_ff,high_ff,2069.538,schuh_show,253 Nein gewiss nicht sagte Alice,true,true,true
precursors,61,254,1.24,1.0,0.5,u,789,high_f0,high_f0,2072.362,tut_tot,254 Magst du gern Hunde,false,true,true
precursors,61,255,1.0,1.0,0.5,o,1103,center,low_ff,2078.154,ruhm_rom,255 Die Maus antwortete nicht,true,true,true
precursors,61,256,1.24,1.0,0.5,u,621,high_f0,high_f0,2083.427,bug_bog,256 Es wohnt ein so reizender,false,true,true
precursors,61,257,1.0,0.873,0.25,u,679,low_ff,low_ff,2086.594,zug_zog,257 Den moechte ich dir zeigen koennen,false,true,true
precursors,61,258,1.0,1.0,0.5,u,592,center,high_f0,2093.835,tut_tot,258 Ein kleiner klaraeugiger Wachtelhund,false,true,true
precursors,61,259,1.0,1.146,0.25,u,894,high_ff,high_ff,2101.107,schuh_show,259 Und er apportiert alles,false,true,true
precursors,61,260,1.0,0.873,0.25,u,1097,low_ff,low_ff,2109.188,ruhm_rom,260 Er ist so nuetzlich,false,true,true
precursors,61,261,1.0,1.0,0.5,o,824,center,high_f0,2113.142,huhn_hohn,261 Ich fuerchte ich habe ihr,true,true,true
precursors,61,262,0.806,1.0,0.5,u,824,low_f0,low_f0,2120.163,tut_tot,262 Denn die Maus schwamm,false,true,true
precursors,61,263,1.0,0.873,0.5,u,1068,low_ff,low_ff,2125.565,zug_zog,263 Sie rief ihr daher zaertlich,false,true,true
precursors,61,264,1.0,1.146,0.75,o,760,high_ff,high_ff,2132.663,brut_brot,264 Komm wieder zurueck,true,true,true
precursors,61,265,1.0,0.873,0.25,u,633,low_ff,low_ff,2138.688,ruhm_rom,265 Als die Maus das hoerte,false,true,true
precursors,61,266,1.0,1.0,0.5,o,911,center,high_f0,2144.433,fuhr_vor,266 Ihr Gesicht war ganz blass,true,true,true
precursors,61,267,1.0,1.146,0.25,u,923,high_ff,high_ff,2150.129,tut_tot,267 Komm mit mir ans Ufer,false,true,true
precursors,61,268,0.806,1.0,0.5,o,569,low_f0,low_f0,2155.386,huhn_hohn,268 Dann wirst du begreifen,true,true,true
precursors,61,269,1.0,1.146,0.75,o,662,high_ff,high_ff,2165.066,ruhm_rom,269 Es war hoechste Zeit,true,true,true
precursors,61,270,1.24,1.0,0.75,o,644,high_f0,high_f0,2174.171,huhn_hohn,270 Da war eine Ente,true,true,true
precursors,62,1,1.0,0.873,0.75,o,1400,low_ff,low_ff,287.649,brut_brot,001 Alice fing an sich zu langweilen,true,true,true
precursors,62,2,1.0,1.146,0.75,o,1040,high_ff,high_ff,293.457,zug_zog,002 Sie sass schon lange,true,true,true
precursors,62,3,1.0,1.0,0.5,o,840,center,low_f0,300.993,huhn_hohn,003 Das Buch das ihre Schwester las,true,true,true
precursors,62,4,1.0,1.146,0.25,u,861,high_ff,high_ff,306.535,zug_zog,004 Und was nuetzen Buecher,false,true,true
precursors,62,5,1.24,1.0,0.5,o,949,high_f0,high_f0,319.801,brut_brot,005 Sie ueberlegte sich eben,true,true,true
precursors,62,6,1.0,1.0,0.5,o,960,center,high_ff,324.153,ruhm_rom,006 Dies war grade nicht sehr merkwuerdig,true,true,true
precursors,62,7,0.806,1.0,0.25,u,880,low_f0,low_f0,334.059,huhn_hohn,007 Alice fand es auch nicht sehr ausserordentlich,false,true,true
precursors,62,8,1.0,0.873,0.75,o,1469,low_ff,low_ff,341.631,bug_bog,008 Als sie es spaeter wieder ueberlegte,true,true,true
precursors,62,9,1.24,1.0,0.25,o,979,high_f0,high_f0,346.193,tut_tot,009 Doch zur Zeit,true,true,true
precursors,62,10,0.806,1.0,0.75,o,979,low_f0,low_f0,356.278,brut_brot,010 Aber als das Kaninchen,true,true,true
precursors,62,11,1.0,0.873,0.75,u,768,low_ff,low_ff,364.472,fuhr_vor,011 Denn es war ihr doch noch nie vorgekommen,false,true,true
precursors,62,12,1.0,1.146,0.25,o,811,high_ff,high_ff,375.877,schuh_show,012 Vor Neugierde brennend,true,true,true
precursors,62,13,0.806,1.0,0.5,o,800,low_f0,low_f0,385.272,zug_zog,013 Den naechsten Augenblick war sie ihm nach,true,true,true
precursors,62,14,1.24,1.0,0.75,o,1131,high_f0,high_f0,393.653,kur_chor,014 Der Eingang zum Kaninchenbau,true,true,true
precursors,62,15,1.0,0.873,0.25,o,1021,low_ff,low_ff,404.343,tut_tot,015 Ehe Alice noch den Gedanken fassen konnte,true,true,true
precursors,62,16,1.0,1.0,0.5,u,1019,center,high_ff,417.324,ruhm_rom,016 Entweder musste der Brunnen sehr tief sein,false,true,true
precursors,62,17,1.0,0.873,0.75,o,928,low_ff,low_ff,426.311,schuh_show,017 Zuerst versuchte sie hinunter zu sehen,true,true,true
precursors,62,18,1.24,1.0,0.75,o,1531,high_f0,high_f0,435.201,fuhr_vor,018 Da besah sie die Waende des Brunnens,true,true,true
precursors,62,19,0.806,1.0,0.25,u,848,low_f0,low_f0,441.667,kur_chor,019 Hier und da erblickte sie Landkarten,false,true,true
precursors,62,20,1.0,1.146,0.5,o,840,high_ff,high_ff,452.862,ruhm_rom,020 Sie nahm im Vorbeifallen,true,true,true
precursors,62,21,1.24,1.0,0.75,o,2741,high_f0,high_f0,461.455,fuhr_vor,021 Sie wollte es nicht fallen lassen,true,true,true
precursors,62,22,0.806,1.0,0.75,o,728,low_f0,low_f0,468.153,kur_chor,022 Und es gelang ihr es in einen anderen Schrank,true,true,true
precursors,62,23,1.0,1.0,0.5,u,960,center,high_f0,477.19,bug_bog,023 Nun dachte Alice bei sich,false,true,true
precursors,62,24,1.0,0.873,0.25,u,1381,low_ff,low_ff,482.303,tut_tot,024 Wie mutig sie mich zuhause,false,true,true
precursors,62,25,1.0,1.146,0.25,o,1029,high_ff,high_ff,488.811,huhn_hohn,025 Ich wuerde nicht viel Redens machen,true,true,true
precursors,62,26,1.0,1.0,0.5,o,2211,center,high_f0,493.357,kur_chor,026 Was sehr wahrscheinlich war,true,true,true
precursors,62,27,1.0,0.873,0.5,u,1229,low_ff,low_ff,497.893,tut_tot,027 Hinunter hinunter hinunter,false,true,true
precursors,62,28,0.806,1.0,0.75,o,1291,low_f0,low_f0,503.331,bug_bog,028 Wieviele Meilen ich wohl jetzt,true,true,true
precursors,62,29,1.0,1.0,0.5,o,1509,center,low_ff,508.318,ruhm_rom,029 Ich muss ungefaehr am Mittelpunkt,true,true,true
precursors,62,30,1.24,1.0,0.5,u,1131,high_f0,high_f0,514.403,fuhr_vor,030 Lass sehen das waeren,false,true,true
precursors,62,31,1.0,1.146,0.5,o,979,high_ff,high_ff,519.866,ruhm_rom,031 Ihr muesst wissen Alice hatte,true,true,true
precursors,62,32,1.0,1.0,0.5,o,1131,center,low_ff,529.969,huhn_hohn,032 Und auch wenn dies keine sehr gute,true,true,true
precursors,62,33,1.0,1.146,0.25,o,731,high_ff,high_ff,537.934,ruhm_rom,033 Ja das ist ungefaehr die Entfernung,true,true,true
precursors,62,34,1.0,1.0,0.5,o,891,center,high_f0,549.622,fuhr_vor,034 Alice hatte nicht den geringsten Begriff,true,true,true
precursors,62,35,1.0,0.873,0.5,u,1309,low_ff,low_ff,569.159,kur_chor,035 Ob ich wohl ganz durch die Erde,false,true,true
precursors,62,36,1.0,1.146,0.5,o,659,high_ff,high_ff,574.949,huhn_hohn,036 Wie komisch das sein wird,true,true,true
precursors,62,37,0.806,1.0,0.75,o,2171,low_f0,low_f0,579.957,kur_chor,037 Die Antipathien,true,true,true
precursors,62,38,1.0,1.0,0.5,o,880,center,high_ff,586.952,huhn_hohn,038 Diesmal war es ihr ganz lieb,true,true,true
precursors,62,39,1.0,0.873,0.25,o,1139,low_ff,low_ff,592.309,brut_brot,039 Aber natuerlich werde ich sie,true,true,true
precursors,62,40,1.24,1.0,0.75,o,659,high_f0,high_f0,597.757,huhn_hohn,040 Bitte liebe Dame ist dies,true,true,true
precursors,62,41,0.806,1.0,0.25,u,1312,low_f0,low_f0,604.904,tut_tot,041 Und sie versuchte dabei zu knixen,false,true,true
precursors,62,42,1.24,1.0,0.5,u,1061,high_f0,high_f0,608.496,fuhr_vor,042 Koenntet ihr das fertig kriegen,false,true,true
precursors,62,43,1.0,1.146,0.75,o,1251,high_ff,high_ff,614.608,bug_bog,043 Aber sie werden mich fuer ein,true,true,true
precursors,62,44,0.806,1.0,0.75,u,1840,low_f0,low_f0,621.719,fuhr_vor,044 Nein es geht nicht an,false,true,true
precursors,62,45,1.0,1.0,0.5,o,1832,center,low_ff,626.779,schuh_show,045 Hinunter hinunter,true,true,true
precursors,62,46,1.24,1.0,0.25,u,960,high_f0,high_f0,633.042,tut_tot,046 Sie konnte nichts weiter tun,false,true,true
precursors,62,47,1.0,1.0,0.5,u,1749,center,high_ff,637.955,bug_bog,047 Dinah wird mich gewiss heut,false,true,true
precursors,62,48,1.24,1.0,0.75,o,1219,high_f0,high_f0,641.238,zug_zog,048 Dinah war die Katze,true,true,true
precursors,62,49,0.806,1.0,0.25,u,819,low_f0,low_f0,646.716,fuhr_vor,049 Ich hoffe sie werden ihren Napf,false,true,true
precursors,62,50,1.0,1.146,0.25,o,851,high_ff,high_ff,652.378,schuh_show,050 Dinah Miez ich wollte,true,true,true
precursors,62,51,0.806,1.0,0.75,o,1389,low_f0,low_f0,660.086,tut_tot,051 Mir ist nur bange,true,true,true
precursors,62,52,1.0,0.873,0.5,o,1400,low_ff,low_ff,665.334,brut_brot,052 Die wird es hier in der Luft,true,true,true
precursors,62,53,1.0,1.0,0.5,o,1200,center,high_f0,669.191,tut_tot,053 Und Katzen fressen doch Spatzen,true,true,true
precursors,62,54,1.0,1.146,0.75,o,752,high_ff,high_ff,675.095,huhn_hohn,054 Hier wurde Alice etwas schlaefrig,true,true,true
precursors,62,55,1.24,1.0,0.75,o,1499,high_f0,high_f0,679.308,ruhm_rom,055 Fressen Katzen gern Spatzen,true,true,true
precursors,62,56,0.806,1.0,0.75,o,909,low_f0,low_f0,682.911,zug_zog,056 Fressen Spatzen gern Katzen,true,true,true
precursors,62,57,1.24,1.0,0.25,o,1480,high_f0,high_f0,690.962,huhn_hohn,057 Und da ihr niemand zu antworten brauchte,true,true,true
precursors,62,58,1.0,0.873,0.75,o,1219,low_ff,low_ff,701.828,kur_chor,058 Sie fuehlte dass sie einschlief,true,true,true
precursors,62,59,1.0,1.146,0.75,o,1192,high_ff,high_ff,708.098,fuhr_vor,059 Nun Dinah sage die Wahrheit,true,true,true
precursors,62,60,0.806,1.0,0.75,o,899,low_f0,low_f0,718.353,huhn_hohn,060 Da mit einem Male,true,true,true
precursors,62,61,1.0,0.873,0.75,o,1539,low_ff,low_ff,722.554,schuh_show,061 Alice hatte sich gar nicht weh getan,true,true,true
precursors,62,62,1.0,1.146,0.75,o,1360,high_ff,high_ff,729.087,brut_brot,062 Sie sprang sogleich auf,true,true,true
precursors,62,63,1.0,0.873,0.25,u,2571,low_ff,low_ff,738.726,fuhr_vor,063 Vor ihr lag ein zweiter langer Gang,false,true,true
precursors,62,64,0.806,1.0,0.5,o,2779,low_f0,low_f0,744.516,schuh_show,064 Es war kein Augenblick zu verlieren,true,true,true
precursors,62,65,1.24,1.0,0.25,u,1200,high_f0,high_f0,751.973,ruhm_rom,065 Fort rannte Alice wie der Wind,false,true,true
precursors,62,66,1.0,0.873,0.75,o,688,low_ff,low_ff,755.826,brut_brot,066 Oh Ohren und Schnurrbart,true,true,true
precursors,62,67,1.0,1.146,0.5,u,1760,high_ff,high_ff,764.07,fuhr_vor,067 Sie war dicht hinter ihm,false,true,true
precursors,62,68,0.806,1.0,0.75,o,1861,low_f0,low_f0,773.663,brut_brot,068 Sie befand sich in einem langen niedrigen Korridor,true,true,true
precursors,62,69,1.24,1.0,0.75,o,752,high_f0,high_f0,795.018,kur_chor,069 Zu beiden Seiten des Korridors,true,true,true
precursors,62,70,1.0,1.0,0.5,o,1499,center,low_f0,801.626,zug_zog,070 Alice versuchte jede Tuer,true,true,true
precursors,62,71,1.24,1.0,0.5,o,1240,high_f0,high_f0,809.409,schuh_show,071 Endlich ging sie traurig in der Mitte entlang,true,true,true
precursors,62,72,1.0,1.146,0.25,o,1059,high_ff,high_ff,816.386,ruhm_rom,072 Ploetzlich stand sie vor einem,true,true,true
precursors,62,73,1.0,0.873,0.5,u,640,low_ff,low_ff,827.334,schuh_show,073 Es war nichts darauf als ein,false,true,true
precursors,62,74,1.24,1.0,0.25,o,960,high_f0,high_f0,833.945,fuhr_vor,074 Aber ach entweder,true,true,true
precursors,62,75,1.0,0.873,0.25,o,2269,low_ff,low_ff,839.506,huhn_hohn,075 Kurz er passte zu keiner einzigen,true,true,true
precursors,62,76,1.0,1.146,0.25,o,621,high_ff,high_ff,852.133,kur_chor,076 Jedoch als sie das zweite Mal,true,true,true
precursors,62,77,1.24,1.0,0.5,u,1741,high_f0,high_f0,859.863,zug_zog,077 Sie steckte das goldene Schluesselchen,false,true,true
precursors,62,78,1.0,0.873,0.75,o,1280,low_ff,low_ff,868.494,tut_tot,078 Alice schloss die Tuer auf,true,true,true
precursors,62,79,1.0,1.146,0.25,u,741,high_ff,high_ff,875.532,huhn_hohn,079 Sie kniete nieder,false,true,true
precursors,62,80,1.0,1.0,0.5,o,1112,center,high_f0,885.579,bug_bog,080 Wie wuenschte sie aus dem dunklen Korridor,true,true,true
precursors,62,81,0.806,1.0,0.75,o,1091,low_f0,low_f0,890.685,fuhr_vor,081 Aber sie konnte kaum den Kopf,true,true,true
precursors,62,82,1.0,0.873,0.5,u,691,low_ff,low_ff,898.167,bug_bog,082 Und wenn auch mein Kopf,false,true,true
precursors,62,83,0.806,1.0,0.5,o,1309,low_f0,low_f0,903.465,huhn_hohn,083 Oh ich moechte mich zusammenschieben,true,true,true
precursors,62,84,1.0,1.146,0.25,o,1400,high_ff,high_ff,909.226,brut_brot,084 Das geht ganz gewiss,true,true,true
precursors,62,85,1.0,0.873,0.5,u,888,low_ff,low_ff,918.464,zug_zog,085 Denn es war kuerzlich so viel,false,true,true
precursors,62,86,1.24,1.0,0.25,o,1368,high_f0,high_f0,924.544,schuh_show,086 Es schien ihr ganz unnuetz,true,true,true
precursors,62,87,1.0,1.0,0.5,u,1000,center,low_ff,937.633,fuhr_vor,087 Daher ging sie zum Tisch zurueck,false,true,true
precursors,62,88,1.0,1.146,0.5,o,3219,high_ff,high_ff,943.96,bug_bog,088 Diesmal fand sie ein Flaeschchen darauf,true,true,true
precursors,62,89,1.0,1.0,0.5,o,880,center,high_f0,948.832,brut_brot,089 Das stand gewiss vorhin,true,true,true
precursors,62,90,0.806,1.0,0.25,o,629,low_f0,low_f0,958.093,tut_tot,090 Und um den Hals des Flaeschchens,true,true,true
precursors,62,91,1.0,1.0,0.5,o,920,center,high_f0,966.245,kur_chor,091 Es war schnell gesagt trinke mich,true,true,true
precursors,62,92,1.0,0.873,0.25,u,880,low_ff,low_ff,973.517,schuh_show,092 Nein ich werde erst nachsehen,false,true,true
precursors,62,93,1.0,1.146,0.25,o,1600,high_ff,high_ff,987.005,brut_brot,093 Denn sie hatte mehrere huebsche Geschichten,true,true,true
precursors,62,94,1.24,1.0,0.75,u,1320,high_f0,high_f0,993.563,schuh_show,094 Nur weil sie nicht an die Warnungen,false,true,true
precursors,62,95,1.0,0.873,0.75,o,701,low_ff,low_ff,998.903,huhn_hohn,095 Zum Beispiel dass ein rotgluehendes,true,true,true
precursors,62,96,1.24,1.0,0.25,u,608,high_f0,high_f0,1005.106,bug_bog,096 Und dass wenn man sich mit einem Messer,false,true,true
precursors,62,97,0.806,1.0,0.5,u,1029,low_f0,low_f0,1015.236,kur_chor,097 Und sie hatte nicht vergessen,false,true,true
precursors,62,98,1.0,1.0,0.5,o,1061,center,high_ff,1019.661,huhn_hohn,098 Diese Flasche jedoch,true,true,true
precursors,62,99,1.0,0.873,0.5,o,2208,low_ff,low_ff,1024.545,brut_brot,099 Daher wagte Alice zu kosten,true,true,true
precursors,62,100,0.806,1.0,0.25,u,821,low_f0,low_f0,1029.653,kur_chor,100 Und da es ihr so gut schmeckte,false,true,true
precursors,62,101,1.0,1.0,0.5,o,651,center,high_f0,1037.256,fuhr_vor,101 Es war eigentlich wie ein Gemisch,true,true,true
precursors,62,102,1.0,1.146,0.5,u,781,high_ff,high_ff,1056.701,zug_zog,102 Was fuer ein komisches Gefuehl,false,true,true
precursors,62,103,1.0,1.0,0.5,u,949,center,low_f0,1060.891,tut_tot,103 Ich gehe gewiss zu,false,true,true
precursors,62,104,1.0,0.873,0.25,o,1349,low_ff,low_ff,1064.647,schuh_show,104 Und so war es in der Tat,true,true,true
precursors,62,105,1.0,1.0,0.5,o,1379,center,high_f0,1077.315,ruhm_rom,105 Jetzt war sie nur noch zehn Zoll hoch,true,true,true
precursors,62,106,1.0,0.873,0.25,u,829,low_ff,low_ff,1083.761,kur_chor,106 Doch erst wartete sie einige Minuten,false,true,true
precursors,62,107,0.806,1.0,0.25,u,1181,low_f0,low_f0,1087.732,huhn_hohn,107 Sie war einigermassen aengstlich,false,true,true
precursors,62,108,1.0,0.873,0.75,u,1320,low_ff,low_ff,1095.952,zug_zog,108 Denn es koennte damit aufhoeren,false,true,true
precursors,62,109,1.24,1.0,0.5,o,1541,high_f0,high_f0,1100.379,ruhm_rom,109 Mich wundert wie ich dann aussaehe,true,true,true
precursors,62,110,0.806,1.0,0.25,o,941,low_f0,low_f0,1108.18,brut_brot,110 Und sie versuchte sich vorzustellen,true,true,true
precursors,62,111,1.0,1.0,0.5,u,1901,center,high_ff,1114.124,kur_chor,111 Aber sie konnte sich nicht erinnern,false,true,true
precursors,62,112,1.0,0.873,0.5,u,1088,low_ff,low_ff,1122.065,huhn_hohn,112 Nach einer Weile als sie merkte,false,true,true
precursors,62,113,0.806,1.0,0.5,u,1181,low_f0,low_f0,1130.293,tut_tot,113 Aber arme Alice,false,true,true
precursors,62,114,1.0,1.0,0.5,o,1200,center,low_ff,1138.59,bug_bog,114 Sie ging zum Tisch zurueck,true,true,true
precursors,62,115,1.24,1.0,0.5,u,1251,high_f0,high_f0,1149.374,schuh_show,115 Sie sah es ganz deutlich,false,true,true
precursors,62,116,1.0,1.146,0.5,o,869,high_ff,high_ff,1156.912,zug_zog,116 Und als sie sich ganz muede gearbeitet,true,true,true
precursors,62,117,1.24,1.0,0.75,u,840,high_f0,high_f0,1163.466,schuh_show,117 Still was nuetzt es,false,true,true
precursors,62,118,1.0,1.0,0.5,u,1128,center,low_ff,1168.067,fuhr_vor,118 Ich rate dir augenblicklich,false,true,true
precursors,62,119,1.0,1.146,0.75,o,939,high_ff,high_ff,1174.31,tut_tot,119 Sie gab sich oft sehr guten Rat,true,true,true
precursors,62,120,0.806,1.0,0.25,u,1821,low_f0,low_f0,1181.491,zug_zog,120 Manchmal schalt sie sich selbt,false,true,true
precursors,62,121,1.0,1.146,0.75,o,1091,high_ff,high_ff,1193.294,schuh_show,121 Und einmal erinnerte sie sich,true,true,true
precursors,62,122,0.806,1.0,0.25,o,1229,low_f0,low_f0,1200.191,zug_zog,122 Denn dieses eigentuemliche Kind,true,true,true
precursors,62,123,1.0,0.873,0.5,u,680,low_ff,low_ff,1207.667,kur_chor,123 Aber jetzt hilft es nichts,false,true,true
precursors,62,124,1.0,1.0,0.5,o,2709,center,low_f0,1215.391,tut_tot,124 Ach es ist ja kaum genug von mir uebrig,true,true,true
precursors,62,125,1.24,1.0,0.5,u,680,high_f0,high_f0,1221.222,ruhm_rom,125 Bald fiel ihr Auge,false,true,true
precursors,62,126,1.0,0.873,0.5,o,869,low_ff,low_ff,1231.792,huhn_hohn,126 Sie oeffnete sie,true,true,true
precursors,62,127,1.0,1.0,0.5,u,701,center,low_f0,1239.458,kur_chor,127 Gut ich will ihn essen,false,true,true
precursors,62,128,1.0,1.146,0.5,o,939,high_ff,high_ff,1245.312,schuh_show,128 Wenn ich aber kleiner davon werde,true,true,true
precursors,62,129,1.0,0.873,0.75,o,632,low_ff,low_ff,1251.338,ruhm_rom,129 So auf jeden Fall gelange ich,true,true,true
precursors,62,130,1.24,1.0,0.75,u,600,high_f0,high_f0,1258.622,bug_bog,130 Sie ass ein bisschen,false,true,true
precursors,62,131,1.0,1.0,0.5,o,1109,center,low_f0,1267.622,schuh_show,131 Dabei hielt sie die Hand pruefend,true,true,true
precursors,62,132,1.0,1.146,0.25,u,811,high_ff,high_ff,1272.29,tut_tot,132 Freilich geschieht dies gewoehnlich,false,true,true
precursors,62,133,1.24,1.0,0.75,o,880,high_f0,high_f0,1281.452,brut_brot,133 Aber Alice war schon so an wunderbare,true,true,true
precursors,62,134,1.0,0.873,0.5,u,891,low_ff,low_ff,1286.849,fuhr_vor,134 Sie machte sich also daran,false,true,true
precursors,62,135,1.24,1.0,0.25,u,1019,high_f0,high_f0,1291.436,brut_brot,135 Verquerer und verquerer,false,true,true
precursors,62,136,0.806,1.0,0.25,u,659,low_f0,low_f0,1312.273,ruhm_rom,136 Sie war so ueberrascht,false,true,true
precursors,62,137,1.0,1.146,0.5,o,720,high_ff,high_ff,1318.597,fuhr_vor,137 Jetzt werde ich auseinandergeschoben,true,true,true
precursors,62,138,1.24,1.0,0.75,u,1880,high_f0,high_f0,1322.9,zug_zog,138 Lebt wohl Fuesse,false,true,true
precursors,62,139,1.0,1.0,0.5,o,981,center,low_f0,1331.975,bug_bog,139 Denn als sie auf ihre Fuesse hinab,true,true,true
precursors,62,140,1.0,0.873,0.25,o,789,low_ff,low_ff,1339.042,ruhm_rom,140 Oh meine armen Fuesschen,true,true,true
precursors,62,141,1.0,1.146,0.75,u,971,high_ff,high_ff,1342.925,kur_chor,141 Denn ich kann es unmoeglich tun,false,true,true
precursors,62,142,0.806,1.0,0.5,u,1160,low_f0,low_f0,1348.167,bug_bog,142 Ich bin viel zu weit ab,false,true,true
precursors,62,143,1.24,1.0,0.25,u,979,high_f0,high_f0,1352.304,brut_brot,143 Ihr muesst sehen wie ihr fertig werdet,false,true,true
precursors,62,144,0.806,1.0,0.25,o,960,low_f0,low_f0,1360.313,bug_bog,144 Aber gut muss ich zu ihnen sein,true,true,true
precursors,62,145,1.0,0.873,0.5,u,611,low_ff,low_ff,1366.894,ruhm_rom,145 Lass mal sehen ich will ihnen,false,true,true
precursors,62,146,1.24,1.0,0.75,o,931,high_f0,high_f0,1371.518,bug_bog,146 Und sie dachte sich aus,true,true,true
precursors,62,147,1.0,1.0,0.5,u,691,center,high_ff,1377.167,fuhr_vor,147 Wie drollig es sein wird,false,true,true
precursors,62,148,1.24,1.0,0.75,o,819,high_f0,high_f0,1381.145,brut_brot,148 Und wie komisch die Adresse,true,true,true
precursors,62,149,0.806,1.0,0.75,o,2480,low_f0,low_f0,1387.446,zug_zog,149 Gerade in dem Augenblick stiess,true,true,true
precursors,62,150,1.24,1.0,0.25,u,688,high_f0,high_f0,1391.746,kur_chor,150 Sie war in der Tat,false,true,true
precursors,62,151,1.0,1.146,0.5,o,1029,high_ff,high_ff,1398.423,tut_tot,151 Und sie nahm sogleich den goldenen Schluessel,true,true,true
precursors,62,152,1.0,0.873,0.25,u,579,low_ff,low_ff,1407.916,ruhm_rom,152 Arme Alice das hoechste,false,true,true
precursors,62,153,1.0,1.0,0.5,u,1131,center,low_f0,1413.013,fuhr_vor,153 Aber an durchgehen war weniger,false,true,true
precursors,62,154,1.0,0.873,0.75,u,1099,low_ff,low_ff,1417.83,zug_zog,154 Sie setzte sich hin,false,true,true
precursors,62,155,1.24,1.0,0.75,o,1059,high_f0,high_f0,1421.801,huhn_hohn,155 Du solltest dich schaemen,true,true,true
precursors,62,156,0.806,1.0,0.25,u,1360,low_f0,low_f0,1427.127,schuh_show,156 So ein grosses Maedchen,false,true,true
precursors,62,157,1.0,1.0,0.5,o,779,center,low_ff,1430.624,brut_brot,157 Hoere gleich auf,true,true,true
precursors,62,158,1.0,1.146,0.5,o,989,high_ff,high_ff,1440.356,schuh_show,158 Aber sie weinte trotzdem fort,true,true,true
precursors,62,159,1.24,1.0,0.5,u,1211,high_f0,high_f0,1446.799,tut_tot,159 Er war ungefaehr vier Zoll tief,false,true,true
precursors,62,160,1.0,1.0,0.5,o,899,center,high_ff,1456.065,schuh_show,160 Nach einem Weilchen hoerte sie,true,true,true
precursors,62,161,1.0,0.873,0.5,o,1139,low_ff,low_ff,1467.554,ruhm_rom,161 Es war das weisse Kaninchen,true,true,true
precursors,62,162,1.0,1.146,0.5,o,1331,high_ff,high_ff,1473.098,kur_chor,162 Es trippelte in grosser Eile,true,true,true
precursors,62,163,0.806,1.0,0.5,o,1400,low_f0,low_f0,1480.21,brut_brot,163 Oh die Herzogin,true,true,true
precursors,62,164,1.24,1.0,0.25,u,1448,high_f0,high_f0,1487.022,ruhm_rom,164 Alice war so ratlos,false,true,true
precursors,62,165,0.806,1.0,0.5,u,1680,low_f0,low_f0,1496.652,schuh_show,165 Als das Kaninchen daher in ihre Naehe,false,true,true
precursors,62,166,1.0,1.146,0.5,o,1101,high_ff,high_ff,1507.137,kur_chor,166 Das Kaninchen fuhr zusammen,true,true,true
precursors,62,167,0.806,1.0,0.25,o,2181,low_f0,low_f0,1512.888,brut_brot,167 Alice hob den Faecher,true,true,true
precursors,62,168,1.0,1.146,0.25,o,1981,high_ff,high_ff,1518.964,bug_bog,168 Wunderbar wie seltsam,true,true,true
precursors,62,169,1.0,1.0,0.5,o,1411,center,high_f0,1523.477,zug_zog,169 Und gestern war es ganz,true,true,true
precursors,62,170,1.0,0.873,0.5,u,941,low_ff,low_ff,1542.721,fuhr_vor,170 Ob ich wohl in der Nacht,false,true,true
precursors,62,171,0.806,1.0,0.5,u,901,low_f0,low_f0,1547.9,huhn_hohn,171 Lass mal sehen,false,true,true
precursors,62,172,1.0,0.873,0.5,o,699,low_ff,low_ff,1553.822,tut_tot,172 Es kommt mir fast vor,true,true,true
precursors,62,173,1.0,1.146,0.75,o,1200,high_ff,high_ff,1561.019,ruhm_rom,173 Aber wenn ich nicht dieselbe bin,true,true,true
precursors,62,174,1.0,1.0,0.5,o,1448,center,low_ff,1564.865,schuh_show,174 Ja das ist das Raetsel,true,true,true
precursors,62,175,0.806,1.0,0.5,o,811,low_f0,low_f0,1574.322,brut_brot,175 So ging sie in Gedanken alle Kinder,true,true,true
precursors,62,176,1.0,1.146,0.25,o,741,high_ff,high_ff,1582.408,bug_bog,176 Ich bin sicherlich nicht Ida,true,true,true
precursors,62,177,1.0,1.0,0.5,o,1069,center,high_f0,1592.009,zug_zog,177 Und bestimmt kann ich nicht Clara sein,true,true,true
precursors,62,178,1.0,0.873,0.5,u,1579,low_ff,low_ff,1600.622,schuh_show,178 Ausserdem sie ist sie selbst,false,true,true
precursors,62,179,1.24,1.0,0.25,u,1589,high_f0,high_f0,1606.996,fuhr_vor,179 Ich will versuchen,false,true,true
precursors,62,180,1.0,1.0,0.5,o,1000,center,high_ff,1613.975,brut_brot,180 Lass sehen vier mal,true,true,true
precursors,62,181,1.0,0.873,0.75,u,3069,low_ff,low_ff,1623.279,bug_bog,181 Und vier mal sieben ist,false,true,true
precursors,62,182,1.0,1.146,0.75,o,949,high_ff,high_ff,1629.953,huhn_hohn,182 Aber das Einmaleins,true,true,true
precursors,62,183,1.0,1.0,0.5,u,1061,center,high_f0,1637.49,zug_zog,183 London ist die Hauptstadt,false,true,true
precursors,62,184,1.0,0.873,0.75,u,2541,low_ff,low_ff,1643.181,tut_tot,184 Nein ich wette das ist alles falsch,false,true,true
precursors,62,185,1.0,1.146,0.75,o,1549,high_ff,high_ff,1647.446,brut_brot,185 Ich muss in Clara,true,true,true
precursors,62,186,1.0,0.873,0.25,u,1000,low_ff,low_ff,1653.163,zug_zog,186 Ich will doch mal sehen,false,true,true
precursors,62,187,1.0,1.0,0.5,o,1091,center,high_f0,1660.619,schuh_show,187 Und sie faltete die Haende,true,true,true
precursors,62,188,1.0,0.873,0.75,o,979,low_ff,low_ff,1667.505,huhn_hohn,188 Aber ihre Stimme klang rauh,true,true,true
precursors,62,189,1.24,1.0,0.25,u,931,high_f0,high_f0,1673.165,bug_bog,189 Bei einem Wirte,false,true,true
precursors,62,190,1.0,1.0,0.5,u,1211,center,high_ff,1679.164,schuh_show,190 Ein Bienennest,false,true,true
precursors,62,191,0.806,1.0,0.5,u,1160,low_f0,low_f0,1684.206,kur_chor,191 Es war der grimme Zottelbaer,false,true,true
precursors,62,192,1.24,1.0,0.5,o,1232,high_f0,high_f0,1689.816,huhn_hohn,192 Mit suessem Honigseim,true,true,true
precursors,62,193,1.0,0.873,0.75,u,981,low_ff,low_ff,1698.099,ruhm_rom,193 Das kommt mir gar nicht richtig vor,false,true,true
precursors,62,194,0.806,1.0,0.25,o,1061,low_f0,low_f0,1709.854,bug_bog,194 Ich muss doch Clara sein,true,true,true
precursors,62,195,1.0,1.0,0.5,o,920,center,high_f0,1716.757,huhn_hohn,195 Nein das habe ich mir vorgenommen,true,true,true
precursors,62,196,1.0,1.146,0.75,o,829,high_ff,high_ff,1724.524,ruhm_rom,196 Es soll ihnen nichts helfen,true,true,true
precursors,62,197,0.806,1.0,0.75,o,941,low_f0,low_f0,1729.566,tut_tot,197 Ich will nur hinaufsehen,true,true,true
precursors,62,198,1.0,0.873,0.75,o,979,low_ff,low_ff,1735.904,kur_chor,198 Sagt mir das erst,true,true,true
precursors,62,199,1.24,1.0,0.5,u,1661,high_f0,high_f0,1742.244,bug_bog,199 Wenn nicht so will ich hier,false,true,true
precursors,62,200,1.0,1.146,0.5,o,1949,high_ff,high_ff,1750.0,brut_brot,200 Aber oh weh schluchzte Alice,true,true,true
precursors,62,201,0.806,1.0,0.75,o,912,low_f0,low_f0,1754.458,bug_bog,201 Es ist mir so langweilig,true,true,true
precursors,62,202,1.0,0.873,0.75,u,1781,low_ff,low_ff,1767.402,fuhr_vor,202 Als sie so sprach,false,true,true
precursors,62,203,1.24,1.0,0.25,o,3611,high_f0,high_f0,1774.351,schuh_show,203 Wie habe ich das nur angefangen,true,true,true
precursors,62,204,1.0,1.0,0.5,o,1269,center,low_f0,1793.441,brut_brot,204 Ich muss wieder klein geworden sein,true,true,true
precursors,62,205,1.0,1.146,0.75,o,480,high_ff,high_ff,1802.222,bug_bog,205 Sie stand auf,true,true,true
precursors,62,206,1.0,1.0,0.5,u,760,center,low_f0,1806.054,brut_brot,206 Dabei schrumpfte sie noch zusehends ein,false,true,true
precursors,62,207,1.0,0.873,0.25,u,739,low_ff,low_ff,1811.473,zug_zog,207 Sie merkte bald dass die Ursache,false,true,true
precursors,62,208,1.0,1.146,0.5,o,2360,high_ff,high_ff,1819.942,tut_tot,208 Sie warf sich schnell hin,true,true,true
precursors,62,209,0.806,1.0,0.25,u,1328,low_f0,low_f0,1829.788,fuhr_vor,209 Das war gluecklich davongekommen,false,true,true
precursors,62,210,1.0,1.146,0.25,o,1792,high_ff,high_ff,1836.176,zug_zog,210 Und nun in den Garten,true,true,true
precursors,62,211,0.806,1.0,0.5,u,1640,low_f0,low_f0,1845.812,fuhr_vor,211 Aber ach die kleine Tuer,false,true,true
precursors,62,212,1.0,0.873,0.25,o,1229,low_ff,low_ff,1853.864,bug_bog,212 Und es ist schlimmer denn je,true,true,true
precursors,62,213,1.0,1.146,0.25,u,1051,high_ff,high_ff,1858.517,fuhr_vor,213 Und ich sage es ist zu schlecht,false,true,true
precursors,62,214,1.24,1.0,0.75,o,1392,high_f0,high_f0,1869.415,tut_tot,214 Wie sie diese Worte sprach glitt sie aus,true,true,true
precursors,62,215,1.0,1.0,0.5,u,1400,center,high_ff,1879.299,ruhm_rom,215 Ihr erster Gedanke war,false,true,true
precursors,62,216,1.0,0.873,0.25,u,1859,low_ff,low_ff,1889.28,fuhr_vor,216 Doch merkte sie bald,false,true,true
precursors,62,217,0.806,1.0,0.75,u,1128,low_f0,low_f0,1898.148,huhn_hohn,217 Ich wuenschte ich haette nicht so viel,false,true,true
precursors,62,218,1.0,1.0,0.5,o,1869,center,high_ff,1905.907,zug_zog,218 Jetzt werde ich wohl dafuer bestraft,true,true,true
precursors,62,219,1.24,1.0,0.5,o,1448,high_f0,high_f0,1911.822,kur_chor,219 Das wird sonderbar sein,true,true,true
precursors,62,220,1.0,1.0,0.5,u,808,center,low_f0,1920.547,brut_brot,220 In dem Augenblick hoerte sie,false,true,true
precursors,62,221,1.0,0.873,0.5,u,821,low_ff,low_ff,1926.331,zug_zog,221 Erst glaubte sie es muesse ein Walross,false,true,true
precursors,62,222,0.806,1.0,0.25,o,2701,low_f0,low_f0,1937.199,schuh_show,222 Dann aber besann sie sich,true,true,true
precursors,62,223,1.0,1.0,0.5,o,1941,center,low_ff,1944.178,bug_bog,223 Wuerde es wohl etwas nuetzen,true,true,true
precursors,62,224,0.806,1.0,0.5,o,3771,low_f0,low_f0,1953.055,zug_zog,224 Alles ist so wunderlich,true,true,true
precursors,62,225,1.0,1.0,0.5,u,1619,center,high_ff,1958.032,tut_tot,225 Auf jeden Fall ist Fragen umsonst,false,true,true
precursors,62,226,1.24,1.0,0.5,o,1520,high_f0,high_f0,1965.271,huhn_hohn,226 So fing sie an oh Maus,true,true,true
precursors,62,227,0.806,1.0,0.75,u,1451,low_f0,low_f0,1970.137,ruhm_rom,227 Ich bin vom Herumschwimmen,false,true,true
precursors,62,228,1.0,1.0,0.5,u,2032,center,low_ff,1975.891,tut_tot,228 Alice dachte so wuerde eine Maus,false,true,true
precursors,62,229,1.0,1.146,0.75,o,800,high_ff,high_ff,1983.54,zug_zog,229 Die Maus sah sie etwas neugierig an,true,true,true
precursors,62,230,0.806,1.0,0.5,o,861,low_f0,low_f0,1987.76,tut_tot,230 Vielleicht versteht sie kein Englisch,true,true,true
precursors,62,231,1.0,1.146,0.5,o,379,high_ff,high_ff,1993.993,brut_brot,231 Es ist vielleicht eine franzoesische Maus,true,false,false
precursors,62,232,1.24,1.0,0.5,u,509,high_f0,high_f0,2002.105,bug_bog,232 Denn trotz ihrer Geschichtskenntnisse,false,true,true
precursors,62,233,1.0,1.0,0.5,o,909,center,low_ff,2007.122,tut_tot,233 Sie sagte also auf Franzoesisch,true,true,true
precursors,62,234,0.806,1.0,0.5,o,688,low_f0,low_f0,2013.669,ruhm_rom,234 Die Maus sprang,true,true,true
precursors,62,235,1.0,0.873,0.25,u,469,low_ff,low_ff,2020.163,kur_chor,235 Oh ich bitte um Verzeihung,false,true,true
precursors,62,236,1.24,1.0,0.25,u,1091,high_f0,high_f0,2024.594,zug_zog,236 Ich hatte ganz vergessen dass Sie,false,true,true
precursors,62,237,1.0,1.0,0.5,u,880,center,low_ff,2045.2,kur_chor,237 Katzen nicht moegen,false,true,true
precursors,62,238,1.24,1.0,0.25,u,589,high_f0,high_f0,2049.75,huhn_hohn,238 Wuerdest du Katzen moegen,false,true,true
precursors,62,239,1.0,1.146,0.75,u,621,high_ff,high_ff,2056.736,schuh_show,239 Nein wohl kaum sagte Alice,false,true,true
precursors,62,240,1.24,1.0,0.75,o,741,high_f0,high_f0,2061.319,tut_tot,240 Und doch moechte ich dir unsere Katze,true,true,true
precursors,62,241,0.806,1.0,0.5,u,789,low_f0,low_f0,2066.997,fuhr_vor,241 Ich glaube du wuerdest Geschmack,false,true,true
precursors,62,242,1.0,1.146,0.5,o,731,high_ff,high_ff,2073.412,huhn_hohn,242 Sie ist so ein liebes,true,true,true
precursors,62,243,0.806,1.0,0.5,u,549,low_f0,low_f0,2080.236,bug_bog,243 Sie sitzt und spinnt so nett,false,true,true
precursors,62,244,1.24,1.0,0.75,u,851,high_f0,high_f0,2084.052,ruhm_rom,244 Und sie ist so ein famoser Maeusefaenger,false,true,true
precursors,62,245,1.0,1.146,0.25,u,669,high_ff,high_ff,2091.354,kur_chor,245 Oh ich bitte um Verzeihung sagte Alice wieder,false,true,true
precursors,62,246,1.0,0.873,0.5,o,661,low_ff,low_ff,2096.042,bug_bog,246 Alice dachte sie muesste sicherlich,true,true,true
precursors,62,247,0.806,1.0,0.5,o,560,low_f0,low_f0,2100.262,ruhm_rom,247 Wir wollen nicht mehr davon reden,true,true,true
precursors,62,248,1.0,1.146,0.75,u,651,high_ff,high_ff,2106.735,fuhr_vor,248 Wir wirklich entgegnete,false,true,true
precursors,62,249,1.24,1.0,0.5,o,699,high_f0,high_f0,2110.79,zug_zog,249 Als ob ich je,true,true,true
precursors,62,250,1.0,1.146,0.5,u,720,high_ff,high_ff,2115.375,bug_bog,250 Unsere Familie hat von jeher,false,true,true
precursors,62,251,1.0,1.0,0.5,o,909,center,low_f0,2119.726,ruhm_rom,251 Haessliche niedrige,true,true,true
precursors,62,252,1.24,1.0,0.5,o,749,high_f0,high_f0,2123.405,kur_chor,252 Lass mich ihren Namen,true,true,true
precursors,62,253,1.0,1.146,0.25,o,811,high_ff,high_ff,2131.57,fuhr_vor,253 Nein gewiss nicht sagte Alice,true,true,true
precursors,62,254,1.24,1.0,0.5,o,1008,high_f0,high_f0,2134.622,tut_tot,254 Magst du gern Hunde,true,true,true
precursors,62,255,1.0,0.873,0.25,u,1080,low_ff,low_ff,2140.403,bug_bog,255 Die Maus antwortete nicht,false,true,true
precursors,62,256,0.806,1.0,0.25,o,891,low_f0,low_f0,2145.958,ruhm_rom,256 Es wohnt ein so reizender,true,true,true
precursors,62,257,1.0,1.0,0.5,u,811,center,high_ff,2149.28,kur_chor,257 Den moechte ich dir zeigen koennen,false,true,true
precursors,62,258,0.806,1.0,0.75,o,749,low_f0,low_f0,2156.684,schuh_show,258 Ein kleiner klaraeugiger Wachtelhund,true,true,true
precursors,62,259,1.24,1.0,0.25,u,720,high_f0,high_f0,2163.807,kur_chor,259 Und er apportiert alles,false,true,true
precursors,62,260,1.0,0.873,0.25,u,749,low_ff,low_ff,2171.553,huhn_hohn,260 Er ist so nuetzlich,false,true,true
precursors,62,261,1.24,1.0,0.5,o,1131,high_f0,high_f0,2175.81,brut_brot,261 Ich fuerchte ich habe ihr,true,true,true
precursors,62,262,1.0,1.0,0.5,o,920,center,low_ff,2182.924,zug_zog,262 Denn die Maus schwamm,true,true,true
precursors,62,263,1.0,1.146,0.75,o,781,high_ff,high_ff,2188.039,tut_tot,263 Sie rief ihr daher zaertlich,true,true,true
precursors,62,264,0.806,1.0,0.75,u,691,low_f0,low_f0,2195.076,schuh_show,264 Komm wieder zurueck,false,true,true
precursors,62,265,1.24,1.0,0.25,o,651,high_f0,high_f0,2201.131,zug_zog,265 Als die Maus das hoerte,true,true,true
precursors,62,266,1.0,1.146,0.25,o,1160,high_ff,high_ff,2207.145,tut_tot,266 Ihr Gesicht war ganz blass,true,true,true
precursors,62,267,1.0,1.0,0.5,o,800,center,low_f0,2212.73,huhn_hohn,267 Komm mit mir ans Ufer,true,true,true
precursors,62,268,1.0,0.873,0.25,u,920,low_ff,low_ff,2218.361,brut_brot,268 Dann wirst du begreifen,false,true,true
precursors,62,269,0.806,1.0,0.75,o,709,low_f0,low_f0,2228.111,ruhm_rom,269 Es war hoechste Zeit,true,true,true
precursors,62,270,1.0,1.146,0.75,o,891,high_ff,high_ff,2237.471,kur_chor,270 Da war eine Ente,true,true,true
precursors,63,1,0.806,1.0,0.25,o,1718,low_f0,low_f0,237.435,bug_bog,001 Alice fing an sich zu langweilen,true,true,true
precursors,63,2,1.0,1.0,0.5,u,1199,center,high_ff,243.408,zug_zog,002 Sie sass schon lange,false,true,true
precursors,63,3,1.0,0.873,0.25,u,1530,low_ff,low_ff,251.632,ruhm_rom,003 Das Buch das ihre Schwester las,false,true,true
precursors,63,4,1.24,1.0,0.75,o,1260,high_f0,high_f0,257.578,schuh_show,004 Und was nuetzen Buecher,true,true,true
precursors,63,5,0.806,1.0,0.5,o,1419,low_f0,low_f0,271.314,huhn_hohn,005 Sie ueberlegte sich eben,true,true,true
precursors,63,6,1.24,1.0,0.75,u,1721,high_f0,high_f0,276.408,kur_chor,006 Dies war grade nicht sehr merkwuerdig,false,true,true
precursors,63,7,0.806,1.0,0.25,o,1408,low_f0,low_f0,286.84,huhn_hohn,007 Alice fand es auch nicht sehr ausserordentlich,true,true,true
precursors,63,8,1.0,1.0,0.5,u,1231,center,high_f0,294.17,kur_chor,008 Als sie es spaeter wieder ueberlegte,false,true,true
precursors,63,9,1.0,0.873,0.25,u,1178,low_ff,low_ff,298.917,schuh_show,009 Doch zur Zeit,false,true,true
precursors,63,10,1.0,1.0,0.5,o,1329,center,high_f0,309.342,brut_brot,010 Aber als das Kaninchen,true,true,true
precursors,63,11,1.0,0.873,0.25,u,1129,low_ff,low_ff,317.891,zug_zog,011 Denn es war ihr doch noch nie vorgekommen,false,true,true
precursors,63,12,0.806,1.0,0.25,u,1480,low_f0,low_f0,329.974,schuh_show,012 Vor Neugierde brennend,false,true,true
precursors,63,13,1.0,1.146,0.75,u,1611,high_ff,high_ff,340.18,kur_chor,013 Den naechsten Augenblick war sie ihm nach,false,true,true
precursors,63,14,1.0,0.873,0.75,o,1559,low_ff,low_ff,348.993,huhn_hohn,014 Der Eingang zum Kaninchenbau,true,true,true
precursors,63,15,1.0,1.0,0.5,o,1280,center,low_f0,359.922,brut_brot,015 Ehe Alice noch den Gedanken fassen konnte,true,true,true
precursors,63,16,1.0,0.873,0.25,u,1489,low_ff,low_ff,373.365,zug_zog,016 Entweder musste der Brunnen sehr tief sein,false,true,true
precursors,63,17,1.0,1.0,0.5,u,1100,center,low_f0,382.503,schuh_show,017 Zuerst versuchte sie hinunter zu sehen,false,true,true
precursors,63,18,1.0,0.873,0.75,u,1190,low_ff,low_ff,391.029,fuhr_vor,018 Da besah sie die Waende des Brunnens,false,true,true
precursors,63,19,0.806,1.0,0.25,o,1120,low_f0,low_f0,397.751,brut_brot,019 Hier und da erblickte sie Landkarten,true,true,true
precursors,63,20,1.0,1.0,0.5,o,1390,center,high_f0,409.494,bug_bog,020 Sie nahm im Vorbeifallen,true,true,true
precursors,63,21,1.0,1.146,0.75,o,1382,high_ff,high_ff,416.708,zug_zog,021 Sie wollte es nicht fallen lassen,true,true,true
precursors,63,22,0.806,1.0,0.5,u,1950,low_f0,low_f0,424.616,ruhm_rom,022 Und es gelang ihr es in einen anderen Schrank,false,true,true
precursors,63,23,1.0,1.146,0.75,o,1329,high_ff,high_ff,433.986,zug_zog,023 Nun dachte Alice bei sich,true,true,true
precursors,63,24,1.0,1.0,0.5,u,1358,center,low_ff,439.072,schuh_show,024 Wie mutig sie mich zuhause,false,true,true
precursors,63,25,1.24,1.0,0.75,u,1190,high_f0,high_f0,445.721,fuhr_vor,025 Ich wuerde nicht viel Redens machen,false,true,true
precursors,63,26,0.806,1.0,0.75,o,1120,low_f0,low_f0,449.183,tut_tot,026 Was sehr wahrscheinlich war,true,true,true
precursors,63,27,1.24,1.0,0.5,u,1379,high_f0,high_f0,453.857,fuhr_vor,027 Hinunter hinunter hinunter,false,true,true
precursors,63,28,1.0,0.873,0.75,o,1001,low_ff,low_ff,459.004,huhn_hohn,028 Wieviele Meilen ich wohl jetzt,true,true,true
precursors,63,29,0.806,1.0,0.75,o,1149,low_f0,low_f0,463.629,zug_zog,029 Ich muss ungefaehr am Mittelpunkt,true,true,true
precursors,63,30,1.0,1.146,0.5,o,900,high_ff,high_ff,469.494,brut_brot,030 Lass sehen das waeren,true,true,true
precursors,63,31,1.0,0.873,0.5,o,990,low_ff,low_ff,474.954,huhn_hohn,031 Ihr muesst wissen Alice hatte,true,true,true
precursors,63,32,1.0,1.146,0.5,u,1350,high_ff,high_ff,485.289,ruhm_rom,032 Und auch wenn dies keine sehr gute,false,true,true
precursors,63,33,0.806,1.0,0.75,o,1280,low_f0,low_f0,493.806,brut_brot,033 Ja das ist ungefaehr die Entfernung,true,true,true
precursors,63,34,1.0,0.873,0.5,o,1289,low_ff,low_ff,505.893,huhn_hohn,034 Alice hatte nicht den geringsten Begriff,true,true,true
precursors,63,35,1.24,1.0,0.75,o,1808,high_f0,high_f0,525.95,zug_zog,035 Ob ich wohl ganz durch die Erde,true,true,true
precursors,63,36,1.0,1.146,0.75,u,1588,high_ff,high_ff,532.696,fuhr_vor,036 Wie komisch das sein wird,false,true,true
precursors,63,37,1.24,1.0,0.25,u,1509,high_f0,high_f0,537.043,zug_zog,037 Die Antipathien,false,true,true
precursors,63,38,1.0,0.873,0.25,u,1860,low_ff,low_ff,545.013,bug_bog,038 Diesmal war es ihr ganz lieb,false,true,true
precursors,63,39,1.24,1.0,0.25,u,1260,high_f0,high_f0,550.486,ruhm_rom,039 Aber natuerlich werde ich sie,false,true,true
precursors,63,40,1.0,1.0,0.5,o,1170,center,high_ff,556.443,tut_tot,040 Bitte liebe Dame ist dies,true,true,true
precursors,63,41,1.0,0.873,0.75,o,2409,low_ff,low_ff,564.691,bug_bog,041 Und sie versuchte dabei zu knixen,true,true,true
precursors,63,42,1.0,1.0,0.5,u,1588,center,low_f0,568.817,tut_tot,042 Koenntet ihr das fertig kriegen,false,true,true
precursors,63,43,1.0,0.873,0.25,u,1271,low_ff,low_ff,574.924,kur_chor,043 Aber sie werden mich fuer ein,false,true,true
precursors,63,44,1.24,1.0,0.75,u,1611,high_f0,high_f0,581.791,schuh_show,044 Nein es geht nicht an,false,true,true
precursors,63,45,1.0,1.146,0.25,u,1030,high_ff,high_ff,586.055,kur_chor,045 Hinunter hinunter,false,true,true
precursors,63,46,1.24,1.0,0.75,o,1210,high_f0,high_f0,592.571,tut_tot,046 Sie konnte nichts weiter tun,true,true,true
precursors,63,47,1.0,1.146,0.5,u,1930,high_ff,high_ff,597.65,bug_bog,047 Dinah wird mich gewiss heut,false,true,true
precursors,63,48,1.24,1.0,0.5,u,1173,high_f0,high_f0,600.873,kur_chor,048 Dinah war die Katze,false,true,true
precursors,63,49,0.806,1.0,0.5,o,868,low_f0,low_f0,606.387,brut_brot,049 Ich hoffe sie werden ihren Napf,true,true,true
precursors,63,50,1.0,1.0,0.5,o,1268,center,low_ff,612.452,huhn_hohn,050 Dinah Miez ich wollte,true,true,true
precursors,63,51,1.0,1.146,0.75,o,1788,high_ff,high_ff,620.545,kur_chor,051 Mir ist nur bange,true,true,true
precursors,63,52,1.0,0.873,0.25,u,1263,low_ff,low_ff,625.636,fuhr_vor,052 Die wird es hier in der Luft,false,true,true
precursors,63,53,0.806,1.0,0.25,u,1492,low_f0,low_f0,629.746,ruhm_rom,053 Und Katzen fressen doch Spatzen,false,true,true
precursors,63,54,1.0,0.873,0.5,u,1289,low_ff,low_ff,636.212,fuhr_vor,054 Hier wurde Alice etwas schlaefrig,false,true,true
precursors,63,55,1.0,1.146,0.5,u,1788,high_ff,high_ff,640.704,zug_zog,055 Fressen Katzen gern Spatzen,false,true,true
precursors,63,56,1.0,0.873,0.25,u,1599,low_ff,low_ff,644.996,huhn_hohn,056 Fressen Spatzen gern Katzen,false,true,true
precursors,63,57,1.24,1.0,0.75,u,1750,high_f0,high_f0,653.297,ruhm_rom,057 Und da ihr niemand zu antworten brauchte,false,true,true
precursors,63,58,1.0,1.146,0.25,u,1919,high_ff,high_ff,664.858,tut_tot,058 Sie fuehlte dass sie einschlief,false,true,true
precursors,63,59,0.806,1.0,0.5,u,1170,low_f0,low_f0,671.11,fuhr_vor,059 Nun Dinah sage die Wahrheit,false,true,true
precursors,63,60,1.0,0.873,0.25,u,2249,low_ff,low_ff,682.717,bug_bog,060 Da mit einem Male,false,true,true
precursors,63,61,1.0,1.146,0.25,u,1361,high_ff,high_ff,686.729,schuh_show,061 Alice hatte sich gar nicht weh getan,false,true,true
precursors,63,62,0.806,1.0,0.75,o,1292,low_f0,low_f0,693.172,kur_chor,062 Sie sprang sogleich auf,true,true,true
precursors,63,63,1.24,1.0,0.5,o,2032,high_f0,high_f0,702.258,huhn_hohn,063 Vor ihr lag ein zweiter langer Gang,true,true,true
precursors,63,64,0.806,1.0,0.5,o,2049,low_f0,low_f0,707.31,kur_chor,064 Es war kein Augenblick zu verlieren,true,true,true
precursors,63,65,1.0,0.873,0.5,u,1312,low_ff,low_ff,714.884,tut_tot,065 Fort rannte Alice wie der Wind,false,true,true
precursors,63,66,1.0,1.146,0.5,u,1611,high_ff,high_ff,719.644,schuh_show,066 Oh Ohren und Schnurrbart,false,true,true
precursors,63,67,1.24,1.0,0.25,u,1820,high_f0,high_f0,727.949,tut_tot,067 Sie war dicht hinter ihm,false,true,true
precursors,63,68,1.0,0.873,0.5,u,1570,low_ff,low_ff,737.238,schuh_show,068 Sie befand sich in einem langen niedrigen Korridor,false,true,true
precursors,63,69,1.0,1.146,0.25,u,1309,high_ff,high_ff,759.155,zug_zog,069 Zu beiden Seiten des Korridors,false,true,true
precursors,63,70,1.0,1.0,0.5,u,1297,center,high_f0,765.56,schuh_show,070 Alice versuchte jede Tuer,false,true,true
precursors,63,71,0.806,1.0,0.75,o,978,low_f0,low_f0,773.099,huhn_hohn,071 Endlich ging sie traurig in der Mitte entlang,true,true,true
precursors,63,72,1.0,0.873,0.75,o,1100,low_ff,low_ff,780.104,kur_chor,072 Ploetzlich stand sie vor einem,true,true,true
precursors,63,73,0.806,1.0,0.5,o,1341,low_f0,low_f0,791.746,huhn_hohn,073 Es war nichts darauf als ein,true,true,true
precursors,63,74,1.0,1.146,0.25,u,1390,high_ff,high_ff,798.791,bug_bog,074 Aber ach entweder,false,true,true
precursors,63,75,0.806,1.0,0.5,o,1771,low_f0,low_f0,803.839,ruhm_rom,075 Kurz er passte zu keiner einzigen,true,true,true
precursors,63,76,1.0,0.873,0.75,o,1634,low_ff,low_ff,817.472,kur_chor,076 Jedoch als sie das zweite Mal,true,true,true
precursors,63,77,1.0,1.0,0.5,o,1062,center,high_f0,824.49,huhn_hohn,077 Sie steckte das goldene Schluesselchen,true,true,true
precursors,63,78,1.0,0.873,0.5,u,1170,low_ff,low_ff,833.016,bug_bog,078 Alice schloss die Tuer auf,false,true,true
precursors,63,79,1.0,1.146,0.25,o,1620,high_ff,high_ff,840.94,zug_zog,079 Sie kniete nieder,true,true,true
precursors,63,80,0.806,1.0,0.75,o,1712,low_f0,low_f0,851.571,schuh_show,080 Wie wuenschte sie aus dem dunklen Korridor,true,true,true
precursors,63,81,1.0,1.0,0.5,u,1321,center,high_ff,856.9,bug_bog,081 Aber sie konnte kaum den Kopf,false,true,true
precursors,63,82,1.24,1.0,0.5,u,1010,high_f0,high_f0,864.69,tut_tot,082 Und wenn auch mein Kopf,false,true,true
precursors,63,83,1.0,1.0,0.5,u,1460,center,low_ff,870.148,fuhr_vor,083 Oh ich moechte mich zusammenschieben,false,true,true
precursors,63,84,0.806,1.0,0.25,o,1010,low_f0,low_f0,875.497,zug_zog,084 Das geht ganz gewiss,true,true,true
precursors,63,85,1.0,1.146,0.25,u,1379,high_ff,high_ff,885.22,ruhm_rom,085 Denn es war kuerzlich so viel,false,true,true
precursors,63,86,1.24,1.0,0.5,u,1059,high_f0,high_f0,891.025,fuhr_vor,086 Es schien ihr ganz unnuetz,false,true,true
precursors,63,87,0.806,1.0,0.75,o,990,low_f0,low_f0,904.108,kur_chor,087 Daher ging sie zum Tisch zurueck,true,true,true
precursors,63,88,1.0,1.146,0.75,o,1239,high_ff,high_ff,908.449,brut_brot,088 Diesmal fand sie ein Flaeschchen darauf,true,true,true
precursors,63,89,1.0,0.873,0.25,u,908,low_ff,low_ff,913.36,tut_tot,089 Das stand gewiss vorhin,false,true,true
precursors,63,90,1.24,1.0,0.25,u,1190,high_f0,high_f0,923.171,huhn_hohn,090 Und um den Hals des Flaeschchens,false,true,true
precursors,63,91,1.0,1.146,0.75,o,938,high_ff,high_ff,931.308,bug_bog,091 Es war schnell gesagt trinke mich,true,true,true
precursors,63,92,1.0,0.873,0.25,u,1219,low_ff,low_ff,938.897,schuh_show,092 Nein ich werde erst nachsehen,false,true,true
precursors,63,93,1.24,1.0,0.5,o,1451,high_f0,high_f0,952.228,brut_brot,093 Denn sie hatte mehrere huebsche Geschichten,true,true,true
precursors,63,94,0.806,1.0,0.75,o,1117,low_f0,low_f0,958.551,bug_bog,094 Nur weil sie nicht an die Warnungen,true,true,true
precursors,63,95,1.0,1.0,0.5,u,1620,center,high_ff,964.807,brut_brot,095 Zum Beispiel dass ein rotgluehendes,false,true,true
precursors,63,96,0.806,1.0,0.5,u,1361,low_f0,low_f0,971.763,schuh_show,096 Und dass wenn man sich mit einem Messer,false,true,true
precursors,63,97,1.0,0.873,0.75,o,1321,low_ff,low_ff,982.177,zug_zog,097 Und sie hatte nicht vergessen,true,true,true
precursors,63,98,1.24,1.0,0.5,u,1059,high_f0,high_f0,986.568,ruhm_rom,098 Diese Flasche jedoch,false,true,true
precursors,63,99,0.806,1.0,0.75,u,1509,low_f0,low_f0,990.749,fuhr_vor,099 Daher wagte Alice zu kosten,false,true,true
precursors,63,100,1.0,1.0,0.5,u,1382,center,high_ff,996.389,brut_brot,100 Und da es ihr so gut schmeckte,false,true,true
precursors,63,101,1.0,0.873,0.25,u,961,low_ff,low_ff,1004.304,fuhr_vor,101 Es war eigentlich wie ein Gemisch,false,true,true
precursors,63,102,1.24,1.0,0.25,u,1051,high_f0,high_f0,1023.994,bug_bog,102 Was fuer ein komisches Gefuehl,false,true,true
precursors,63,103,1.0,1.0,0.5,u,1027,center,high_ff,1028.234,schuh_show,103 Ich gehe gewiss zu,false,true,true
precursors,63,104,1.0,0.873,0.5,u,1559,low_ff,low_ff,1032.179,kur_chor,104 Und so war es in der Tat,false,true,true
precursors,63,105,0.806,1.0,0.25,o,1730,low_f0,low_f0,1045.208,zug_zog,105 Jetzt war sie nur noch zehn Zoll hoch,true,true,true
precursors,63,106,1.24,1.0,0.5,u,1149,high_f0,high_f0,1051.982,bug_bog,106 Doch erst wartete sie einige Minuten,false,true,true
precursors,63,107,1.0,0.873,0.5,u,1620,low_ff,low_ff,1056.383,ruhm_rom,107 Sie war einigermassen aengstlich,false,true,true
precursors,63,108,0.806,1.0,0.25,u,1071,low_f0,low_f0,1064.349,tut_tot,108 Denn es koennte damit aufhoeren,false,true,true
precursors,63,109,1.0,0.873,0.5,u,1460,low_ff,low_ff,1068.689,brut_brot,109 Mich wundert wie ich dann aussaehe,false,true,true
precursors,63,110,0.806,1.0,0.25,u,1030,low_f0,low_f0,1076.574,fuhr_vor,110 Und sie versuchte sich vorzustellen,false,true,true
precursors,63,111,1.0,1.146,0.75,o,1141,high_ff,high_ff,1081.746,tut_tot,111 Aber sie konnte sich nicht erinnern,true,true,true
precursors,63,112,1.24,1.0,0.5,u,1370,high_f0,high_f0,1089.966,kur_chor,112 Nach einer Weile als sie merkte,false,true,true
precursors,63,113,1.0,1.146,0.75,o,1080,high_ff,high_ff,1098.088,brut_brot,113 Aber arme Alice,true,true,true
precursors,63,114,1.0,1.0,0.5,u,1689,center,low_f0,1106.872,schuh_show,114 Sie ging zum Tisch zurueck,false,true,true
precursors,63,115,1.24,1.0,0.25,u,1059,high_f0,high_f0,1117.467,brut_brot,115 Sie sah es ganz deutlich,false,true,true
precursors,63,116,1.0,1.146,0.25,o,1048,high_ff,high_ff,1125.175,huhn_hohn,116 Und als sie sich ganz muede gearbeitet,true,true,true
precursors,63,117,1.24,1.0,0.25,u,1030,high_f0,high_f0,1131.933,schuh_show,117 Still was nuetzt es,false,true,true
precursors,63,118,1.0,1.0,0.5,u,1202,center,low_ff,1136.613,ruhm_rom,118 Ich rate dir augenblicklich,false,true,true
precursors,63,119,0.806,1.0,0.5,o,1379,low_f0,low_f0,1143.266,bug_bog,119 Sie gab sich oft sehr guten Rat,true,true,true
precursors,63,120,1.24,1.0,0.25,u,879,high_f0,high_f0,1149.507,kur_chor,120 Manchmal schalt sie sich selbt,false,true,true
precursors,63,121,1.0,1.146,0.75,o,1579,high_ff,high_ff,1161.807,schuh_show,121 Und einmal erinnerte sie sich,true,true,true
precursors,63,122,1.0,0.873,0.25,u,1791,low_ff,low_ff,1169.263,ruhm_rom,122 Denn dieses eigentuemliche Kind,false,true,true
precursors,63,123,0.806,1.0,0.75,o,1750,low_f0,low_f0,1177.801,bug_bog,123 Aber jetzt hilft es nichts,true,true,true
precursors,63,124,1.0,1.0,0.5,u,1280,center,high_ff,1184.102,schuh_show,124 Ach es ist ja kaum genug von mir uebrig,false,true,true
precursors,63,125,1.24,1.0,0.75,o,1411,high_f0,high_f0,1190.649,huhn_hohn,125 Bald fiel ihr Auge,true,true,true
precursors,63,126,1.0,1.146,0.25,u,1881,high_ff,high_ff,1202.202,fuhr_vor,126 Sie oeffnete sie,false,true,true
precursors,63,127,1.0,1.0,0.5,u,1280,center,low_f0,1210.468,kur_chor,127 Gut ich will ihn essen,false,true,true
precursors,63,128,1.0,1.146,0.75,u,1620,high_ff,high_ff,1216.983,fuhr_vor,128 Wenn ich aber kleiner davon werde,false,true,true
precursors,63,129,1.24,1.0,0.5,o,900,high_f0,high_f0,1223.279,huhn_hohn,129 So auf jeden Fall gelange ich,true,true,true
precursors,63,130,1.0,0.873,0.25,u,1010,low_ff,low_ff,1230.99,brut_brot,130 Sie ass ein bisschen,false,true,true
precursors,63,131,0.806,1.0,0.75,u,1762,low_f0,low_f0,1240.633,schuh_show,131 Dabei hielt sie die Hand pruefend,false,true,true
precursors,63,132,1.0,1.0,0.5,u,1010,center,high_f0,1245.468,zug_zog,132 Freilich geschieht dies gewoehnlich,false,true,true
precursors,63,133,1.0,1.146,0.5,u,1129,high_ff,high_ff,1254.873,kur_chor,133 Aber Alice war schon so an wunderbare,false,true,true
precursors,63,134,1.0,0.873,0.75,u,990,low_ff,low_ff,1260.353,bug_bog,134 Sie machte sich also daran,false,true,true
precursors,63,135,1.0,1.146,0.5,o,1550,high_ff,high_ff,1265.453,brut_brot,135 Verquerer und verquerer,true,true,true
precursors,63,136,0.806,1.0,0.5,o,2781,low_f0,low_f0,1288.441,kur_chor,136 Sie war so ueberrascht,true,true,true
precursors,63,137,1.0,1.0,0.5,u,1591,center,high_f0,1295.633,fuhr_vor,137 Jetzt werde ich auseinandergeschoben,false,true,true
precursors,63,138,1.0,1.146,0.75,o,1570,high_ff,high_ff,1299.615,bug_bog,138 Lebt wohl Fuesse,true,true,true
precursors,63,139,1.0,0.873,0.75,o,1509,low_ff,low_ff,1309.213,brut_brot,139 Denn als sie auf ihre Fuesse hinab,true,true,true
precursors,63,140,1.0,1.0,0.5,u,1469,center,high_f0,1316.95,ruhm_rom,140 Oh meine armen Fuesschen,false,true,true
precursors,63,141,0.806,1.0,0.5,u,1829,low_f0,low_f0,1321.686,schuh_show,141 Denn ich kann es unmoeglich tun,false,true,true
precursors,63,142,1.0,1.0,0.5,u,1860,center,low_ff,1327.635,bug_bog,142 Ich bin viel zu weit ab,false,true,true
precursors,63,143,1.24,1.0,0.75,o,2490,high_f0,high_f0,1333.284,tut_tot,143 Ihr muesst sehen wie ihr fertig werdet,true,true,true
precursors,63,144,1.0,1.146,0.5,o,1939,high_ff,high_ff,1342.285,zug_zog,144 Aber gut muss ich zu ihnen sein,true,true,true
precursors,63,145,1.24,1.0,0.25,u,1750,high_f0,high_f0,1349.993,fuhr_vor,145 Lass mal sehen ich will ihnen,false,true,true
precursors,63,146,1.0,1.146,0.25,o,1620,high_ff,high_ff,1355.274,brut_brot,146 Und sie dachte sich aus,true,true,true
precursors,63,147,1.0,0.873,0.5,u,1483,low_ff,low_ff,1361.726,ruhm_rom,147 Wie drollig es sein wird,false,true,true
precursors,63,148,1.24,1.0,0.75,o,1840,high_f0,high_f0,1366.721,huhn_hohn,148 Und wie komisch die Adresse,true,true,true
precursors,63,149,0.806,1.0,0.25,u,1379,low_f0,low_f0,1371.897,tut_tot,149 Gerade in dem Augenblick stiess,false,true,true
precursors,63,150,1.0,1.0,0.5,u,1692,center,high_ff,1377.184,kur_chor,150 Sie war in der Tat,false,true,true
precursors,63,151,1.24,1.0,0.25,u,1930,high_f0,high_f0,1384.767,schuh_show,151 Und sie nahm sogleich den goldenen Schluessel,false,true,true
precursors,63,152,0.806,1.0,0.75,o,1591,low_f0,low_f0,1395.263,huhn_hohn,152 Arme Alice das hoechste,true,true,true
precursors,63,153,1.0,0.873,0.75,o,1898,low_ff,low_ff,1401.114,brut_brot,153 Aber an durchgehen war weniger,true,true,true
precursors,63,154,1.0,1.146,0.75,o,1460,high_ff,high_ff,1406.273,huhn_hohn,154 Sie setzte sich hin,true,true,true
precursors,63,155,1.0,0.873,0.75,u,1399,low_ff,low_ff,1410.584,ruhm_rom,155 Du solltest dich schaemen,false,true,true
precursors,63,156,1.24,1.0,0.75,u,2171,high_f0,high_f0,1416.735,fuhr_vor,156 So ein grosses Maedchen,false,true,true
precursors,63,157,1.0,0.873,0.5,u,1530,low_ff,low_ff,1421.003,zug_zog,157 Hoere gleich auf,false,true,true
precursors,63,158,1.0,1.146,0.75,o,1991,high_ff,high_ff,1431.731,schuh_show,158 Aber sie weinte trotzdem fort,true,true,true
precursors,63,159,1.24,1.0,0.25,u,2842,high_f0,high_f0,1439.788,brut_brot,159 Er war ungefaehr vier Zoll tief,false,true,true
precursors,63,160,1.0,1.0,0.5,o,1071,center,low_f0,1449.202,huhn_hohn,160 Nach einem Weilchen hoerte sie,true,true,true
precursors,63,161,1.24,1.0,0.5,u,1440,high_f0,high_f0,1460.973,schuh_show,161 Es war das weisse Kaninchen,false,true,true
precursors,63,162,1.0,1.0,0.5,u,1358,center,low_ff,1466.574,fuhr_vor,162 Es trippelte in grosser Eile,false,true,true
precursors,63,163,1.0,1.146,0.75,o,1579,high_ff,high_ff,1473.86,ruhm_rom,163 Oh die Herzogin,true,true,true
precursors,63,164,0.806,1.0,0.5,u,1689,low_f0,low_f0,1480.907,tut_tot,164 Alice war so ratlos,false,true,true
precursors,63,165,1.0,0.873,0.5,,,low_ff,low_ff,1493.856,schuh_show,165 Als das Kaninchen daher in ihre Naehe,,,false
precursors,63,166,1.24,1.0,0.5,u,1460,high_f0,high_f0,1505.712,bug_bog,166 Das Kaninchen fuhr zusammen,false,true,true
precursors,63,167,1.0,1.146,0.5,u,1309,high_ff,high_ff,1510.581,ruhm_rom,167 Alice hob den Faecher,false,true,true
precursors,63,168,1.0,1.0,0.5,u,1178,center,low_f0,1515.859,zug_zog,168 Wunderbar wie seltsam,false,true,true
precursors,63,169,1.0,0.873,0.5,u,900,low_ff,low_ff,1519.848,fuhr_vor,169 Und gestern war es ganz,false,true,true
precursors,63,170,1.0,1.146,0.25,u,1489,high_ff,high_ff,1539.637,ruhm_rom,170 Ob ich wohl in der Nacht,false,true,true
precursors,63,171,1.0,0.873,0.75,u,1521,low_ff,low_ff,1545.431,schuh_show,171 Lass mal sehen,false,true,true
precursors,63,172,1.0,1.0,0.5,u,1800,center,high_f0,1552.465,tut_tot,172 Es kommt mir fast vor,false,true,true
precursors,63,173,0.806,1.0,0.25,o,2310,low_f0,low_f0,1560.765,huhn_hohn,173 Aber wenn ich nicht dieselbe bin,true,true,true
precursors,63,174,1.24,1.0,0.25,u,1521,high_f0,high_f0,1564.676,bug_bog,174 Ja das ist das Raetsel,false,true,true
precursors,63,175,0.806,1.0,0.25,u,2490,low_f0,low_f0,1575.813,fuhr_vor,175 So ging sie in Gedanken alle Kinder,false,true,true
precursors,63,176,1.0,1.0,0.5,u,2159,center,high_ff,1585.331,kur_chor,176 Ich bin sicherlich nicht Ida,false,true,true
precursors,63,177,0.806,1.0,0.75,o,1550,low_f0,low_f0,1595.406,brut_brot,177 Und bestimmt kann ich nicht Clara sein,true,true,true
precursors,63,178,1.24,1.0,0.25,u,1178,high_f0,high_f0,1603.603,zug_zog,178 Ausserdem sie ist sie selbst,false,true,true
precursors,63,179,1.0,1.0,0.5,u,1248,center,high_ff,1609.638,tut_tot,179 Ich will versuchen,false,true,true
precursors,63,180,1.24,1.0,0.75,o,1460,high_f0,high_f0,1617.059,kur_chor,180 Lass sehen vier mal,true,true,true
precursors,63,181,0.806,1.0,0.5,o,1620,low_f0,low_f0,1624.9,bug_bog,181 Und vier mal sieben ist,true,true,true
precursors,63,182,1.0,1.146,0.5,u,2110,high_ff,high_ff,1632.738,fuhr_vor,182 Aber das Einmaleins,false,true,true
precursors,63,183,1.0,0.873,0.5,u,1640,low_ff,low_ff,1640.861,brut_brot,183 London ist die Hauptstadt,false,true,true
precursors,63,184,1.24,1.0,0.75,u,2078,high_f0,high_f0,1646.06,bug_bog,184 Nein ich wette das ist alles falsch,false,true,true
precursors,63,185,1.0,0.873,0.75,u,1518,low_ff,low_ff,1650.313,ruhm_rom,185 Ich muss in Clara,false,true,true
precursors,63,186,0.806,1.0,0.25,u,1341,low_f0,low_f0,1656.381,kur_chor,186 Ich will doch mal sehen,false,true,true
precursors,63,187,1.0,0.873,0.75,u,1329,low_ff,low_ff,1664.06,tut_tot,187 Und sie faltete die Haende,false,true,true
precursors,63,188,1.24,1.0,0.75,u,1913,high_f0,high_f0,1671.869,ruhm_rom,188 Aber ihre Stimme klang rauh,false,true,true
precursors,63,189,1.0,0.873,0.75,u,2659,low_ff,low_ff,1679.256,schuh_show,189 Bei einem Wirte,false,true,true
precursors,63,190,1.0,1.0,0.5,u,1721,center,high_ff,1685.777,fuhr_vor,190 Ein Bienennest,false,true,true
precursors,63,191,1.24,1.0,0.25,u,1402,high_f0,high_f0,1691.051,kur_chor,191 Es war der grimme Zottelbaer,false,true,true
precursors,63,192,1.0,1.146,0.25,o,1132,high_ff,high_ff,1696.55,bug_bog,192 Mit suessem Honigseim,true,true,true
precursors,63,193,1.0,1.0,0.5,u,2000,center,low_f0,1705.859,fuhr_vor,193 Das kommt mir gar nicht richtig vor,false,true,true
precursors,63,194,1.0,0.873,0.25,u,1550,low_ff,low_ff,1718.104,brut_brot,194 Ich muss doch Clara sein,false,true,true
precursors,63,195,1.0,1.146,0.5,o,940,high_ff,high_ff,1725.025,tut_tot,195 Nein das habe ich mir vorgenommen,true,true,true
precursors,63,196,1.0,1.0,0.5,u,961,center,high_f0,1732.927,ruhm_rom,196 Es soll ihnen nichts helfen,false,true,true
precursors,63,197,0.806,1.0,0.75,o,1312,low_f0,low_f0,1738.337,fuhr_vor,197 Ich will nur hinaufsehen,true,true,true
precursors,63,198,1.0,0.873,0.5,u,949,low_ff,low_ff,1744.643,bug_bog,198 Sagt mir das erst,false,true,true
precursors,63,199,1.0,1.0,0.5,u,1263,center,high_f0,1750.577,zug_zog,199 Wenn nicht so will ich hier,false,true,true
precursors,63,200,1.0,0.873,0.5,u,1001,low_ff,low_ff,1757.369,kur_chor,200 Aber oh weh schluchzte Alice,false,true,true
precursors,63,201,1.0,1.0,0.5,u,1190,center,low_f0,1762.087,zug_zog,201 Es ist mir so langweilig,false,true,true
precursors,63,202,1.24,1.0,0.75,o,891,high_f0,high_f0,1774.144,brut_brot,202 Als sie so sprach,true,true,true
precursors,63,203,1.0,1.0,0.5,o,850,center,high_ff,1778.343,huhn_hohn,203 Wie habe ich das nur angefangen,true,true,true
precursors,63,204,0.806,1.0,0.75,o,1292,low_f0,low_f0,1797.455,tut_tot,204 Ich muss wieder klein geworden sein,true,true,true
precursors,63,205,1.0,1.146,0.25,u,1582,high_ff,high_ff,1807.335,brut_brot,205 Sie stand auf,false,true,true
precursors,63,206,1.0,1.0,0.5,u,1657,center,low_ff,1812.042,tut_tot,206 Dabei schrumpfte sie noch zusehends ein,false,true,true
precursors,63,207,1.24,1.0,0.5,u,1091,high_f0,high_f0,1817.8,ruhm_rom,207 Sie merkte bald dass die Ursache,false,true,true
precursors,63,208,1.0,0.873,0.5,u,1260,low_ff,low_ff,1825.15,tut_tot,208 Sie warf sich schnell hin,false,true,true
precursors,63,209,1.0,1.0,0.5,u,1721,center,low_f0,1835.383,brut_brot,209 Das war gluecklich davongekommen,false,true,true
precursors,63,210,1.0,1.146,0.75,o,1190,high_ff,high_ff,1841.182,ruhm_rom,210 Und nun in den Garten,true,true,true
precursors,63,211,1.0,1.0,0.5,u,1071,center,high_f0,1850.251,bug_bog,211 Aber ach die kleine Tuer,false,true,true
precursors,63,212,0.806,1.0,0.75,o,1120,low_f0,low_f0,1858.205,zug_zog,212 Und es ist schlimmer denn je,true,true,true
precursors,63,213,1.0,0.873,0.25,u,1109,low_ff,low_ff,1862.923,huhn_hohn,213 Und ich sage es ist zu schlecht,false,true,true
precursors,63,214,1.0,1.0,0.5,u,1501,center,high_ff,1873.931,ruhm_rom,214 Wie sie diese Worte sprach glitt sie aus,false,true,true
precursors,63,215,1.24,1.0,0.25,u,1289,high_f0,high_f0,1883.694,tut_tot,215 Ihr erster Gedanke war,false,true,true
precursors,63,216,0.806,1.0,0.25,u,1361,low_f0,low_f0,1893.162,brut_brot,216 Doch merkte sie bald,false,true,true
precursors,63,217,1.0,1.146,0.5,o,949,high_ff,high_ff,1901.856,huhn_hohn,217 Ich wuenschte ich haette nicht so viel,true,true,true
precursors,63,218,1.24,1.0,0.5,u,1129,high_f0,high_f0,1908.856,zug_zog,218 Jetzt werde ich wohl dafuer bestraft,false,true,true
precursors,63,219,0.806,1.0,0.25,u,1228,low_f0,low_f0,1914.549,kur_chor,219 Das wird sonderbar sein,false,true,true
precursors,63,220,1.0,1.146,0.25,u,1219,high_ff,high_ff,1923.666,tut_tot,220 In dem Augenblick hoerte sie,false,true,true
precursors,63,221,1.0,1.0,0.5,u,990,center,high_f0,1929.632,kur_chor,221 Erst glaubte sie es muesse ein Walross,false,true,true
precursors,63,222,1.0,1.146,0.5,o,1341,high_ff,high_ff,1939.133,schuh_show,222 Dann aber besann sie sich,true,true,true
precursors,63,223,0.806,1.0,0.5,u,1321,low_f0,low_f0,1945.496,fuhr_vor,223 Wuerde es wohl etwas nuetzen,false,true,true
precursors,63,224,1.0,1.0,0.5,u,1149,center,low_ff,1951.76,kur_chor,224 Alles ist so wunderlich,false,true,true
precursors,63,225,1.0,1.146,0.25,o,981,high_ff,high_ff,1956.099,huhn_hohn,225 Auf jeden Fall ist Fragen umsonst,true,true,true
precursors,63,226,1.24,1.0,0.5,u,932,high_f0,high_f0,1962.749,schuh_show,226 So fing sie an oh Maus,false,true,true
precursors,63,227,1.0,1.0,0.5,u,900,center,low_f0,1967.044,tut_tot,227 Ich bin vom Herumschwimmen,false,true,true
precursors,63,228,1.0,0.873,0.75,o,972,low_ff,low_ff,1971.729,zug_zog,228 Alice dachte so wuerde eine Maus,true,true,true
precursors,63,229,1.0,1.146,0.75,o,1158,high_ff,high_ff,1979.737,huhn_hohn,229 Die Maus sah sie etwas neugierig an,true,true,true
precursors,63,230,1.24,1.0,0.75,u,1181,high_f0,high_f0,1984.256,brut_brot,230 Vielleicht versteht sie kein Englisch,false,true,true
precursors,63,231,1.0,1.0,0.5,o,1080,center,low_f0,1991.185,bug_bog,231 Es ist vielleicht eine franzoesische Maus,true,true,true
precursors,63,232,1.0,1.146,0.25,u,1161,high_ff,high_ff,1999.938,schuh_show,232 Denn trotz ihrer Geschichtskenntnisse,false,true,true
precursors,63,233,1.0,1.0,0.5,u,1541,center,low_f0,2005.566,ruhm_rom,233 Sie sagte also auf Franzoesisch,false,true,true
precursors,63,234,1.24,1.0,0.25,u,981,high_f0,high_f0,2012.397,huhn_hohn,234 Die Maus sprang,false,true,true
precursors,63,235,0.806,1.0,0.5,o,1158,low_f0,low_f0,2019.58,brut_brot,235 Oh ich bitte um Verzeihung,true,true,true
precursors,63,236,1.0,1.146,0.25,u,1190,high_ff,high_ff,2024.114,fuhr_vor,236 Ich hatte ganz vergessen dass Sie,false,true,true
precursors,63,237,1.0,0.873,0.75,o,1202,low_ff,low_ff,2045.051,tut_tot,237 Katzen nicht moegen,true,true,true
precursors,63,238,1.0,1.0,0.5,o,1219,center,high_f0,2050.235,huhn_hohn,238 Wuerdest du Katzen moegen,true,true,true
precursors,63,239,0.806,1.0,0.5,o,1370,low_f0,low_f0,2057.954,zug_zog,239 Nein wohl kaum sagte Alice,true,true,true
precursors,63,240,1.0,0.873,0.25,u,1681,low_ff,low_ff,2063.488,kur_chor,240 Und doch moechte ich dir unsere Katze,false,true,true
precursors,63,241,1.0,1.146,0.5,o,1599,high_ff,high_ff,2069.963,bug_bog,241 Ich glaube du wuerdest Geschmack,true,true,true
precursors,63,242,1.0,1.0,0.5,u,1472,center,low_ff,2077.1,ruhm_rom,242 Sie ist so ein liebes,false,true,true
precursors,63,243,1.24,1.0,0.5,u,1968,high_f0,high_f0,2085.356,brut_brot,243 Sie sitzt und spinnt so nett,false,true,true
precursors,63,244,1.0,1.0,0.5,o,2261,center,low_ff,2090.599,zug_zog,244 Und sie ist so ein famoser Maeusefaenger,true,true,true
precursors,63,245,1.0,1.146,0.5,u,1860,high_ff,high_ff,2099.087,fuhr_vor,245 Oh ich bitte um Verzeihung sagte Alice wieder,false,true,true
precursors,63,246,0.806,1.0,0.75,o,1890,low_f0,low_f0,2105.017,ruhm_rom,246 Alice dachte sie muesste sicherlich,true,true,true
precursors,63,247,1.0,1.146,0.5,o,2281,high_ff,high_ff,2110.942,kur_chor,247 Wir wollen nicht mehr davon reden,true,true,true
precursors,63,248,1.0,1.0,0.5,o,1739,center,low_ff,2118.488,huhn_hohn,248 Wir wirklich entgegnete,true,true,true
precursors,63,249,0.806,1.0,0.5,o,1591,low_f0,low_f0,2123.419,zug_zog,249 Als ob ich je,true,true,true
precursors,63,250,1.0,0.873,0.75,u,1521,low_ff,low_ff,2128.799,fuhr_vor,250 Unsere Familie hat von jeher,false,true,true
precursors,63,251,0.806,1.0,0.75,o,2339,low_f0,low_f0,2134.569,ruhm_rom,251 Haessliche niedrige,true,true,true
precursors,63,252,1.24,1.0,0.5,u,1890,high_f0,high_f0,2139.392,tut_tot,252 Lass mich ihren Namen,false,true,true
precursors,63,253,0.806,1.0,0.25,o,1570,low_f0,low_f0,2148.309,bug_bog,253 Nein gewiss nicht sagte Alice,true,true,true
precursors,63,254,1.0,1.0,0.5,u,1541,center,low_ff,2151.9,brut_brot,254 Magst du gern Hunde,false,true,true
precursors,63,255,1.0,1.146,0.25,u,1701,high_ff,high_ff,2158.3,kur_chor,255 Die Maus antwortete nicht,false,true,true
precursors,63,256,1.24,1.0,0.5,u,859,high_f0,high_f0,2163.835,zug_zog,256 Es wohnt ein so reizender,false,true,true
precursors,63,257,1.0,1.0,0.5,u,1210,center,low_f0,2167.546,fuhr_vor,257 Den moechte ich dir zeigen koennen,false,true,true
precursors,63,258,1.24,1.0,0.75,o,1181,high_f0,high_f0,2175.375,zug_zog,258 Ein kleiner klaraeugiger Wachtelhund,true,true,true
precursors,63,259,0.806,1.0,0.5,u,1141,low_f0,low_f0,2182.92,tut_tot,259 Und er apportiert alles,false,true,true
precursors,63,260,1.0,1.0,0.5,o,1091,center,low_ff,2190.994,bug_bog,260 Er ist so nuetzlich,true,true,true
precursors,63,261,1.0,1.146,0.5,o,1251,high_ff,high_ff,2195.385,tut_tot,261 Ich fuerchte ich habe ihr,true,true,true
precursors,63,262,1.24,1.0,0.25,u,1260,high_f0,high_f0,2202.835,fuhr_vor,262 Denn die Maus schwamm,false,true,true
precursors,63,263,0.806,1.0,0.25,u,1750,low_f0,low_f0,2208.945,ruhm_rom,263 Sie rief ihr daher zaertlich,false,true,true
precursors,63,264,1.0,0.873,0.25,u,1010,low_ff,low_ff,2216.303,tut_tot,264 Komm wieder zurueck,false,true,true
precursors,63,265,1.24,1.0,0.75,u,1550,high_f0,high_f0,2223.252,bug_bog,265 Als die Maus das hoerte,false,true,true
precursors,63,266,1.0,1.146,0.5,o,1080,high_ff,high_ff,2229.178,huhn_hohn,266 Ihr Gesicht war ganz blass,true,true,true
precursors,63,267,1.0,0.873,0.5,u,1161,low_ff,low_ff,2235.119,zug_zog,267 Komm mit mir ans Ufer,false,true,true
precursors,63,268,0.806,1.0,0.25,u,1210,low_f0,low_f0,2241.033,schuh_show,268 Dann wirst du begreifen,false,true,true
precursors,63,269,1.24,1.0,0.25,u,1341,high_f0,high_f0,2251.422,ruhm_rom,269 Es war hoechste Zeit,false,true,true
precursors,63,270,1.0,1.146,0.75,o,1518,high_ff,high_ff,2261.411,tut_tot,270 Da war eine Ente,true,true,true
precursors,64,1,1.0,0.873,0.5,u,1180,low_ff,low_ff,243.244,huhn_hohn,001 Alice fing an sich zu langweilen,false,true,true
precursors,64,2,1.24,1.0,0.5,u,1000,high_f0,high_f0,249.016,tut_tot,002 Sie sass schon lange,false,true,true
precursors,64,3,1.0,1.0,0.5,u,1170,center,high_ff,256.857,ruhm_rom,003 Das Buch das ihre Schwester las,false,true,true
precursors,64,4,1.0,0.873,0.25,u,990,low_ff,low_ff,262.542,kur_chor,004 Und was nuetzen Buecher,false,true,true
precursors,64,5,1.0,1.0,0.5,u,1110,center,low_f0,275.939,bug_bog,005 Sie ueberlegte sich eben,false,true,true
precursors,64,6,1.24,1.0,0.5,u,1000,high_f0,high_f0,280.307,fuhr_vor,006 Dies war grade nicht sehr merkwuerdig,false,true,true
precursors,64,7,1.0,1.146,0.25,u,1120,high_ff,high_ff,290.445,ruhm_rom,007 Alice fand es auch nicht sehr ausserordentlich,false,true,true
precursors,64,8,1.24,1.0,0.25,u,930,high_f0,high_f0,297.474,tut_tot,008 Als sie es spaeter wieder ueberlegte,false,true,true
precursors,64,9,1.0,1.0,0.5,u,900,center,high_ff,301.943,huhn_hohn,009 Doch zur Zeit,false,true,true
precursors,64,10,1.0,0.873,0.75,u,1060,low_ff,low_ff,312.104,tut_tot,010 Aber als das Kaninchen,false,true,true
precursors,64,11,0.806,1.0,0.5,o,1340,low_f0,low_f0,320.849,ruhm_rom,011 Denn es war ihr doch noch nie vorgekommen,true,true,true
precursors,64,12,1.0,0.873,0.25,u,980,low_ff,low_ff,332.426,schuh_show,012 Vor Neugierde brennend,false,true,true
precursors,64,13,1.0,1.146,0.75,u,880,high_ff,high_ff,341.907,tut_tot,013 Den naechsten Augenblick war sie ihm nach,false,true,true
precursors,64,14,1.24,1.0,0.5,u,970,high_f0,high_f0,350.108,ruhm_rom,014 Der Eingang zum Kaninchenbau,false,true,true
precursors,64,15,1.0,1.146,0.75,o,1140,high_ff,high_ff,360.873,schuh_show,015 Ehe Alice noch den Gedanken fassen konnte,true,true,true
precursors,64,16,0.806,1.0,0.25,u,1130,low_f0,low_f0,373.951,brut_brot,016 Entweder musste der Brunnen sehr tief sein,false,true,true
precursors,64,17,1.0,1.146,0.75,o,1110,high_ff,high_ff,383.112,bug_bog,017 Zuerst versuchte sie hinunter zu sehen,true,true,true
precursors,64,18,0.806,1.0,0.5,u,880,low_f0,low_f0,391.325,huhn_hohn,018 Da besah sie die Waende des Brunnens,false,true,true
precursors,64,19,1.24,1.0,0.25,u,810,high_f0,high_f0,397.73,tut_tot,019 Hier und da erblickte sie Landkarten,false,true,true
precursors,64,20,0.806,1.0,0.5,u,1030,low_f0,low_f0,409.111,schuh_show,020 Sie nahm im Vorbeifallen,false,true,true
precursors,64,21,1.0,0.873,0.25,u,870,low_ff,low_ff,415.828,bug_bog,021 Sie wollte es nicht fallen lassen,false,true,true
precursors,64,22,0.806,1.0,0.25,u,1120,low_f0,low_f0,422.905,ruhm_rom,022 Und es gelang ihr es in einen anderen Schrank,false,true,true
precursors,64,23,1.0,1.146,0.5,o,1080,high_ff,high_ff,432.038,zug_zog,023 Nun dachte Alice bei sich,true,true,true
precursors,64,24,1.24,1.0,0.5,u,880,high_f0,high_f0,436.634,bug_bog,024 Wie mutig sie mich zuhause,false,true,true
precursors,64,25,1.0,1.0,0.5,o,1040,center,low_ff,443.139,zug_zog,025 Ich wuerde nicht viel Redens machen,true,true,true
precursors,64,26,1.0,1.146,0.75,o,1290,high_ff,high_ff,446.772,kur_chor,026 Was sehr wahrscheinlich war,true,true,true
precursors,64,27,1.0,1.0,0.5,u,910,center,low_ff,450.98,schuh_show,027 Hinunter hinunter hinunter,false,true,true
